Time,inertial-6253.76535:scaledAccelX,inertial-6253.76535:scaledAccelY,inertial-6253.76535:scaledAccelZ,inertial-6253.76535:scaledGyroX,inertial-6253.76535:scaledGyroY,inertial-6253.76535:scaledGyroZ,inertial-6253.76535:scaledMagX,inertial-6253.76535:scaledMagY,inertial-6253.76535:scaledMagZ,inertial-6253.76535:roll,inertial-6253.76535:pitch,inertial-6253.76535:yaw
0.000000000,0.5799199938774109,-0.02237580344080925,-0.8168886303901672,0.002991712419316173,-0.002122631995007396,0.005427074618637562,-0.4607382416725159,0.05193039774894714,0.2632945477962494,0.04072226583957672,0.6115759611129761,-2.932516098022461
0.004999424,0.579792320728302,-0.02228105627000332,-0.8172362446784973,0.003450596239417791,-0.002258073771372437,0.004807488527148962,-0.4608363807201385,0.05190116539597511,0.2629951536655426,0.04073468968272209,0.6115733981132507,-2.932500839233398
0.009999872,0.5784792900085449,-0.02241107262670994,-0.8177487254142761,0.002878376748412848,-0.00175078643951565,0.005005710292607546,-0.4609118700027466,0.0518786758184433,0.2627648115158081,0.04074499011039734,0.6115689873695374,-2.93248724937439
0.015000832,0.5775959491729736,-0.0226941779255867,-0.8163895010948181,0.003069664118811488,-0.001656335894949734,0.004204975441098213,-0.4609369039535522,0.05187121778726578,0.2626884281635284,0.04075351729989052,0.6115702986717224,-2.93248438835144
0.020009471,0.5788002014160156,-0.02340538799762726,-0.8175111413002014,0.00349985808134079,-0.001352416584268212,0.006614385172724724,-0.4612252116203308,0.05161087587475777,0.2638253569602966,0.0407724529504776,0.6115728616714478,-2.932471036911011
0.025012992,0.5773462653160095,-0.02170214802026749,-0.8169885873794556,0.003570090979337692,-0.001306672347709537,0.006023084279149771,-0.4613208174705505,0.05152455344796181,0.2642023265361786,0.04078621044754982,0.6115726232528687,-2.932454586029053
0.030011648,0.5755796432495117,-0.02157941646873951,-0.8171493411064148,0.002562847454100847,0.000365145766409114,0.005528626032173634,-0.4613943994045258,0.05145813152194023,0.264492392539978,0.0407901294529438,0.6115747094154358,-2.932447910308838
0.035011839,0.5762371420860291,-0.02162807621061802,-0.8178563714027405,0.003068741178140044,-8.450017776340246e-05,0.00441628834232688,-0.4614188075065613,0.05143610760569572,0.2645885646343231,0.04080542922019958,0.6115753054618835,-2.932435989379883
0.040012032,0.5781949162483215,-0.02343039959669113,-0.8159844279289246,0.002624287270009518,-0.0004291205550543964,0.005841549951583147,-0.461237370967865,0.05156964063644409,0.2648357152938843,0.04082094505429268,0.6115787029266357,-2.932419300079346
0.045012992,0.5778078436851501,-0.02424707263708115,-0.8168177604675293,0.0009495703270658851,0.001209533307701349,0.004357801750302315,-0.4611276388168335,0.05165115371346474,0.2649604976177216,0.04082314297556877,0.6115862131118774,-2.932420969009399
0.050015233,0.5794573426246643,-0.02189580351114273,-0.816516637802124,0.002453625202178955,-1.939453977684025e-05,0.004895900376141071,-0.4610432088375092,0.05171387270092964,0.2650565207004547,0.04082910716533661,0.6115948557853699,-2.932403087615967
0.055012610,0.5779668092727661,-0.02318692207336426,-0.8157368898391724,0.002367473673075438,0.0009164342191070318,0.006573962047696114,-0.4610152244567871,0.05173466727137566,0.2650883793830872,0.0408436581492424,0.6116064190864563,-2.932379484176636
0.060010497,0.5789018869400024,-0.02344925329089165,-0.8154260516166687,0.001756733166985214,0.0003851961228065193,0.00495171220973134,-0.460906982421875,0.05177559703588486,0.264857143163681,0.04085202887654305,0.6116114258766174,-2.932376861572266
0.065009408,0.5776936411857605,-0.02320944145321846,-0.8168193697929382,0.00187221821397543,0.0007239024853333831,0.004917621612548828,-0.4607836604118347,0.05181430652737617,0.2645225822925568,0.04085616394877434,0.6116189956665039,-2.93237566947937
0.070009343,0.5803444385528564,-0.02241953276097775,-0.818317711353302,0.00393989123404026,-0.0005910448380745947,0.003795846831053495,-0.4606887996196747,0.05184409022331238,0.2642651796340942,0.04087001457810402,0.6116278767585754,-2.93236255645752
0.075010814,0.580686092376709,-0.02250747755169868,-0.8174393177032471,0.001929618301801383,0.001309279818087816,0.006232754793018103,-0.4606573283672333,0.0518539659678936,0.2641798257827759,0.04087863489985466,0.6116473078727722,-2.932339668273926
0.080012798,0.5792227387428284,-0.02110007405281067,-0.8171758651733398,0.003151070792227983,0.0008394943433813751,0.005940219853073359,-0.4606331288814545,0.05186156556010246,0.2641141712665558,0.04088803380727768,0.6116567850112915,-2.932320594787598
0.085010178,0.5790457129478455,-0.02145707607269287,-0.8158018589019775,0.002840369939804077,-0.001097580417990685,0.005371971055865288,-0.4610287249088287,0.05181651562452316,0.2636092603206635,0.04090477898716927,0.6116592884063721,-2.932308197021484
0.090008065,0.5791141390800476,-0.02042634040117264,-0.8161258697509766,0.00355541193857789,-0.002257805317640305,0.005436904262751341,-0.4613330960273743,0.05178185179829597,0.2632207572460175,0.04091211780905724,0.6116605997085571,-2.932291269302368
0.095006973,0.5784987211227417,-0.02324672788381577,-0.816949725151062,0.003057363443076611,-0.001203513122163713,0.005488593596965075,-0.4614340364933014,0.05177035927772522,0.2630919218063354,0.04092659428715706,0.6116594672203064,-2.932283163070679
0.100006916,0.5771481394767761,-0.02363390848040581,-0.8167241811752319,0.001325128716416657,-0.00127478176727891,0.005842461250722408,-0.4615117013454437,0.05176151543855667,0.262992799282074,0.04093090444803238,0.611656665802002,-2.932279109954834
0.105008386,0.579613983631134,-0.02363493107259274,-0.8172059059143066,0.002782776020467281,0.000241971923969686,0.004518112167716026,-0.4615395963191986,0.05182082578539848,0.263441413640976,0.04094362258911133,0.6116639375686646,-2.932270288467407
0.110010624,0.5783631205558777,-0.02322015911340714,-0.8180729746818542,0.001420076820068061,-0.003170833690091968,0.004313705023378134,-0.4615632295608521,0.05192939937114716,0.2642734050750732,0.04094778373837471,0.6116536259651184,-2.932260274887085
0.115007997,0.5786382555961609,-0.02262146025896072,-0.8177704811096191,0.0007780478335916996,-0.002035756129771471,0.006071855314075947,-0.46157106757164,0.05196540057659149,0.2645492851734161,0.040946114808321,0.6116504669189453,-2.932250499725342
0.120006144,0.5782103538513184,-0.02356533333659172,-0.8174148201942444,0.003771128132939339,-0.001158366329036653,0.006456162314862013,-0.4615771174430847,0.05199310183525085,0.2647615671157837,0.04096785932779312,0.6116487383842468,-2.93224024772644
0.125005305,0.5778460502624512,-0.02356680482625961,-0.817298948764801,0.002359528793022037,-0.001948710065335035,0.00340127432718873,-0.4615791141986847,0.05200228467583656,0.2648319602012634,0.040968406945467,0.6116430759429932,-2.932247400283813
0.130005255,0.5791650414466858,-0.0230620838701725,-0.8177168369293213,0.001152988872490823,-0.0007824861677363515,0.002255639526993036,-0.461310088634491,0.05200088396668434,0.2645246982574463,0.04096973687410355,0.6116408109664917,-2.932247161865234
0.135006204,0.5760993957519531,-0.02249902859330177,-0.8177698254585266,0.001551383291371167,-0.003679997753351927,0.003748253919184208,-0.4612208902835846,0.05200041830539703,0.2644228041172028,0.04096506536006927,0.6116267442703247,-2.932248592376709
0.140008450,0.5783489346504211,-0.02314521931111813,-0.8168988823890686,0.001702484674751759,-0.002651860704645514,0.003288910258561373,-0.4611522555351257,0.05200006067752838,0.2643443942070007,0.04096750169992447,0.6116248369216919,-2.932244300842285
0.145005569,0.5790318846702576,-0.02193222939968109,-0.8175724148750305,0.001845705788582563,-0.003272845642641187,0.00245952419936657,-0.4611294865608215,0.05199994146823883,0.2643184065818787,0.04096298664808273,0.6116174459457397,-2.932244300842285
0.150003716,0.5788909792900085,-0.02114187367260456,-0.8156076073646545,0.001836747862398624,-0.002781136427074671,0.00420661922544241,-0.4609574973583221,0.05198914557695389,0.2634465098381042,0.04095658659934998,0.6116112470626831,-2.932233095169067
0.155008510,0.5782174468040466,-0.02281124517321587,-0.8160512447357178,0.0002657111035659909,-0.003559588454663754,0.003495896235108376,-0.4608622491359711,0.05198292061686516,0.2629466354846954,0.0409526526927948,0.6116000413894653,-2.932237386703491
0.160008445,0.5786271095275879,-0.02252913452684879,-0.8167606592178345,0.002425287384539843,-0.002630440751090646,0.003159028943628073,-0.4607889652252197,0.05197812989354134,0.2625619769096375,0.04094953462481499,0.6115933060646057,-2.932236909866333
0.165009663,0.579139769077301,-0.02418227307498455,-0.8175146579742432,0.001047429046593606,-0.002510482678189874,0.003799867816269398,-0.4607646763324738,0.05197653919458389,0.2624344527721405,0.04095464199781418,0.6115903854370117,-2.932232618331909
0.170011908,0.5785002112388611,-0.0215023085474968,-0.8157219290733337,0.003326771082356572,-0.00121229887008667,0.002538758097216487,-0.4608597457408905,0.05177975818514824,0.2628482580184937,0.04095955193042755,0.6115906834602356,-2.932231426239014
0.175009280,0.5789338946342468,-0.01969331689178944,-0.8157282471656799,0.002628038171678782,-0.003787512890994549,0.003418406937271357,-0.4610059559345245,0.0515173077583313,0.2635017037391663,0.04095308855175972,0.611581563949585,-2.932230710983276
0.180007935,0.5785021185874939,-0.02009452134370804,-0.8176354169845581,0.001323589007370174,-0.002538028638809919,0.004784509539604187,-0.4611184895038605,0.05131536722183228,0.2640044689178467,0.04094706103205681,0.6115706562995911,-2.932221174240112
0.185007110,0.5781034231185913,-0.02247410081326962,-0.8184719681739807,0.003981503657996655,-0.002651305869221687,0.004510954022407532,-0.4611558020114899,0.05124840885400772,0.2641711831092834,0.04096083715558052,0.6115686297416687,-2.932215929031372
0.190007299,0.5773922801017761,-0.02303830906748772,-0.8169061541557312,0.002658413257449865,-0.002397800795733929,0.005496830679476261,-0.4611845016479492,0.05119689181447029,0.2642994523048401,0.04096952825784683,0.6115653514862061,-2.932213068008423
0.195008263,0.5766512751579285,-0.02363010123372078,-0.8170978426933289,0.003237109631299973,-0.001473313313908875,0.004931747913360596,-0.4611439108848572,0.05137516558170319,0.2635344862937927,0.04098166152834892,0.6115573048591614,-2.932217836380005
0.200011015,0.5764952898025513,-0.02293325215578079,-0.8161972165107727,0.001309233484789729,-8.593449456384405e-05,0.003206599038094282,-0.4611126780509949,0.05151233822107315,0.2629458904266357,0.0409756526350975,0.611564040184021,-2.932219982147217
0.205008894,0.5783547759056091,-0.02292540296912193,-0.8155726194381714,0.002285437891259789,-0.0009251410374417901,0.005548601038753986,-0.4611023366451263,0.05155782029032707,0.2627507150173187,0.040981225669384,0.6115670204162598,-2.932213306427002
0.210007548,0.5778001546859741,-0.02204195223748684,-0.8182153701782227,0.0008370401337742805,-0.001906835474073887,0.004727967083454132,-0.4610943794250488,0.05159281939268112,0.2626005709171295,0.04097755998373032,0.6115620136260986,-2.93220591545105
0.215006724,0.5782656073570251,-0.02344046533107758,-0.8164339661598206,0.001428719726391137,-6.215018220245838e-05,0.00515087554231286,-0.4610635638237,0.05155066773295403,0.2630583345890045,0.04098252579569817,0.6115626692771912,-2.932199478149414
0.220006660,0.5794584155082703,-0.02180165238678455,-0.8166254162788391,0.0015402149874717,-0.0005562282167375088,0.004911968018859625,-0.4610113203525543,0.05146387964487076,0.2639237642288208,0.04098250344395638,0.6115688681602478,-2.932189702987671
0.225007623,0.5798031091690063,-0.02283683605492115,-0.8157519698143005,0.002351484261453152,-0.001321832416579127,0.006149026099592447,-0.4609940052032471,0.05143510550260544,0.2642107307910919,0.04099949076771736,0.6115701198577881,-2.932177305221558
0.230009601,0.5773226618766785,-0.02109044417738914,-0.816211462020874,0.001264348858967423,-0.002147994935512543,0.002776792272925377,-0.4609806537628174,0.05141296237707138,0.2644315361976624,0.04098635911941528,0.6115665435791016,-2.932181596755981
0.235006973,0.5782623291015625,-0.02222716622054577,-0.8165995478630066,0.002931678900495172,0.0002367562847211957,0.004687758162617683,-0.460976243019104,0.05140561982989311,0.2645047605037689,0.04099781438708305,0.6115749478340149,-2.932170152664185
0.240005121,0.5767229795455933,-0.02033689245581627,-0.8147614598274231,0.003245325060561299,-0.001377732376568019,0.004323070403188467,-0.4612396061420441,0.0513959601521492,0.2635568976402283,0.04100153967738152,0.6115709543228149,-2.932163238525391
0.245004550,0.577420711517334,-0.02039900608360767,-0.8156531453132629,0.003158509498462081,-0.0003346085431985557,0.005361498333513737,-0.46132692694664,0.05139275640249252,0.2632426023483276,0.04100745916366577,0.6115782260894775,-2.932153463363647
0.250004739,0.5777433514595032,-0.02098851464688778,-0.816419243812561,0.003225891618058085,-0.0009339547250419855,0.005231389775872231,-0.4613941013813019,0.05139029026031494,0.2630007565021515,0.04102086275815964,0.6115781664848328,-2.932138919830322
0.255005956,0.5793787240982056,-0.02196141704916954,-0.8164881467819214,0.003994940780103207,0.00181364722084254,0.005838772747665644,-0.4614163935184479,0.05138947069644928,0.2629205584526062,0.04104118049144745,0.6115922927856445,-2.93212366104126
0.260007948,0.5791276693344116,-0.0219191387295723,-0.8171140551567078,0.004150091204792261,-0.0002912404306698591,0.007463247980922461,-0.4613345861434937,0.05158934742212296,0.2627206444740295,0.04105614498257637,0.6115939617156982,-2.932101011276245
0.265005052,0.577670693397522,-0.02197114750742912,-0.8162375092506409,0.003178775077685714,-0.0007613538764417171,0.006037143990397453,-0.4612829983234406,0.05170523747801781,0.2626201510429382,0.04107040166854858,0.6115932464599609,-2.93208646774292
0.270002931,0.5773510932922363,-0.02341056987643242,-0.8177984952926636,0.003984759096056223,-0.001947301905602217,0.005546236410737038,-0.4612432718276978,0.05179440602660179,0.2625428140163422,0.04108870029449463,0.6115832924842834,-2.932086944580078
0.275002122,0.5790233612060547,-0.023436164483428,-0.8172149062156677,0.002772448817268014,-0.0006715799681842327,0.004653596319258213,-0.4612300992012024,0.05182397365570068,0.2625171840190887,0.04109488055109978,0.6115930676460266,-2.93207311630249
0.280002058,0.5787289142608643,-0.02286994084715843,-0.815010130405426,0.002940350212156773,0.0001207158784382045,0.005544056184589863,-0.461220771074295,0.05179422348737717,0.2630816996097565,0.0411100909113884,0.6115978956222534,-2.932059288024902
0.285003006,0.5793024897575378,-0.02237737737596035,-0.8178429007530212,0.003122586524114013,-0.0008406775305047631,0.005626092199236155,-0.4612185060977936,0.0517314188182354,0.2638579905033112,0.04111932218074799,0.6115977764129639,-2.932047605514526
0.290011138,0.5790268778800964,-0.02341156639158726,-0.8171048164367676,0.003373904153704643,-0.002747029298916459,0.005000820849090815,-0.4612167477607727,0.05168309435248375,0.2644553184509277,0.04113320633769035,0.6115903258323669,-2.932041168212891
0.295014143,0.578154981136322,-0.02313731983304024,-0.8170326948165894,0.003741248045116663,-0.001950543955899775,0.004665241111069918,-0.4612161815166473,0.05166706815361977,0.2646533846855164,0.04114552587270737,0.6115880012512207,-2.932031393051147
0.300012559,0.5780068635940552,-0.02289389818906784,-0.8168958425521851,0.003941614180803299,-0.0014299510512501,0.004138180054724216,-0.4612157344818115,0.05165474116802216,0.2648057639598846,0.04115516319870949,0.6115827560424805,-2.932032585144043
0.305011451,0.579288125038147,-0.02644733339548111,-0.8177503943443298,0.0003834549570456147,-0.002207808895036578,0.003956862725317478,-0.4611649513244629,0.05169855058193207,0.2646313607692719,0.04115644842386246,0.6115738153457642,-2.932040214538574
0.310011655,0.5782234668731689,-0.02403084561228752,-0.8177204132080078,0.002521300688385963,-0.002218744717538357,0.001707026036456227,-0.4611258804798126,0.05173226073384285,0.2644971907138824,0.04115570336580276,0.6115679740905762,-2.932049751281738
0.315012604,0.5795425772666931,-0.0213962160050869,-0.8177245259284973,0.0001115180784836411,-0.002136404393240809,0.003662851406261325,-0.461112916469574,0.05174343660473824,0.2644526958465576,0.04115006700158119,0.6115660071372986,-2.932044744491577
0.320014834,0.5786861777305603,-0.02171671390533447,-0.8161966800689697,0.001620904542505741,-0.002249088371172547,0.004288285505026579,-0.4611029326915741,0.05175203830003738,0.2644184529781342,0.04115132242441177,0.6115596890449524,-2.932039976119995
0.325011969,0.5792548060417175,-0.02257535792887211,-0.8157399296760559,-0.0002193225082010031,-0.003366246586665511,0.004379208665341139,-0.4610119462013245,0.05166623368859291,0.2643810212612152,0.04114401713013649,0.6115570664405823,-2.932038307189941
0.330010623,0.5798864960670471,-0.02118463069200516,-0.8177679777145386,0.0009156643645837903,-0.00284032360650599,0.003516115248203278,-0.4608533084392548,0.05151056498289108,0.2643258571624756,0.04112868383526802,0.6115483641624451,-2.932040452957153
0.335010052,0.5798654556274414,-0.0218797642737627,-0.8170329332351685,0.001702553825452924,-0.002532896818593144,0.003824910847470164,-0.4608007073402405,0.05145895108580589,0.2643075585365295,0.04112230613827705,0.611538827419281,-2.932034730911255
0.340010226,0.5774383544921875,-0.02559328638017178,-0.8151140213012695,0.0004679083358496428,-0.002559774555265903,0.003629453014582396,-0.460760235786438,0.05141923576593399,0.2642934918403625,0.04112235829234123,0.6115360260009766,-2.932051181793213
0.345011204,0.5785681009292603,-0.02010579220950603,-0.8153092861175537,0.002068063942715526,-0.001352276536636055,0.00333773554302752,-0.4607467949390411,0.05140606313943863,0.2642888128757477,0.04111210629343987,0.6115438342094421,-2.932041168212891
0.350013435,0.5763352513313293,-0.0217671450227499,-0.8178147673606873,0.001510629779659212,-0.003224965184926987,0.003461763728410006,-0.4610084295272827,0.05179629847407341,0.263098418712616,0.04110784456133842,0.611525297164917,-2.932041883468628
0.355010808,0.5766419768333435,-0.02250536717474461,-0.8159803152084351,0.0005259261233732104,-0.003314532106742263,0.003077748697251081,-0.4610951840877533,0.05192569270730019,0.2627037167549133,0.04110664501786232,0.6115227937698364,-2.932038068771362
0.360009223,0.5768317580223083,-0.02282111160457134,-0.8154210448265076,0.001041932962834835,-0.002628258895128965,0.003757735481485724,-0.4611619114875793,0.05202525109052658,0.2624000012874603,0.04109878465533257,0.6115118265151978,-2.9320387840271
0.365008384,0.577670156955719,-0.02283178456127644,-0.8166177868843079,0.002229229081422091,-0.003272362519055605,0.002186669502407312,-0.4611840546131134,0.05205826088786125,0.2622992992401123,0.04109861329197884,0.6114959120750427,-2.932044506072998
0.370008588,0.5774009227752686,-0.02291332930326462,-0.8160067796707153,0.001818577409721911,-0.003168682567775249,0.002589695854112506,-0.4609486162662506,0.05208243429660797,0.2626190781593323,0.04109399020671844,0.6114867925643921,-2.932043313980103
0.375009537,0.5782626271247864,-0.02229718491435051,-0.8188537955284119,0.002791156759485602,-0.002063919557258487,0.002461637835949659,-0.4608080983161926,0.05209014564752579,0.2628234326839447,0.04109259694814682,0.6114741563796997,-2.932049989700317
0.380011529,0.5776287913322449,-0.02188285999000072,-0.8187851905822754,0.00326274149119854,-0.001730776508338749,0.003935561049729586,-0.4606999456882477,0.05209608003497124,0.2629806399345398,0.04109155759215355,0.611474871635437,-2.932045459747314
0.385008633,0.5783036351203918,-0.02077419497072697,-0.8170044422149658,0.001190176699310541,-0.001541405217722058,0.003844906808808446,-0.4606640934944153,0.05209804698824883,0.2630327939987183,0.04108685627579689,0.6114725470542908,-2.932038307189941
0.390007049,0.5794241428375244,-0.02045740000903606,-0.8162965178489685,0.003022191114723682,-0.003651466686278582,0.003187552327290177,-0.4607495963573456,0.05198449268937111,0.2628987729549408,0.04108655080199242,0.6114642024040222,-2.932031631469727
0.395006478,0.578908383846283,-0.02769931964576244,-0.8181063532829285,0.002541276393458247,-0.002549391007050872,0.00165643822401762,-0.4608919620513916,0.05183080583810806,0.2626787722110748,0.04109947010874748,0.6114556193351746,-2.932055950164795
0.400006413,0.5783748030662537,-0.02789213322103024,-0.8168884515762329,0.0003063914482481778,-0.00309632858261466,0.002446898492053151,-0.4610015153884888,0.05171255767345428,0.2625094652175903,0.04109474271535873,0.6114462018013,-2.932080745697021
0.405007631,0.5792314410209656,-0.02175560779869556,-0.8169159293174744,0.0003617727779783309,-0.002314121695235372,0.001916244858875871,-0.4610378444194794,0.05167334899306297,0.2624533176422119,0.0410742312669754,0.6114377975463867,-2.932087421417236
0.410009593,0.579052209854126,-0.0198544729501009,-0.8160898685455322,-0.0002862994442693889,-0.001626200857572258,0.001388755859807134,-0.461065798997879,0.05164317786693573,0.2624101340770721,0.04104751721024513,0.6114338040351868,-2.932091236114502
0.415006727,0.5773923397064209,-0.02281708270311356,-0.8170804977416992,-8.150949724949896e-05,-0.0008807379635982215,0.001908709527924657,-0.4609749615192413,0.05173264816403389,0.2623480558395386,0.04103517532348633,0.6114363670349121,-2.932105302810669
0.420005113,0.575720489025116,-0.02148049511015415,-0.8183844685554504,-0.001493090880103409,-0.000420705764554441,0.002008218783885241,-0.4609050750732422,0.05180148780345917,0.2623002827167511,0.04100990667939186,0.6114388108253479,-2.932110548019409
0.425010443,0.5756627917289734,-0.0221894159913063,-0.8166031241416931,0.0005626216297969222,-0.0009148200042545795,0.003289470449090004,-0.4608818888664246,0.05182431638240814,0.2622844576835632,0.04100117459893227,0.6114383339881897,-2.932114601135254
0.430010617,0.5778144598007202,-0.01959587819874287,-0.8160766959190369,0.0006310160970315337,-0.001066722092218697,0.003806309076026082,-0.4608640372753143,0.05184188112616539,0.2622722685337067,0.04099395126104355,0.6114486455917358,-2.932101011276245
0.435011595,0.579307496547699,-0.02025354839861393,-0.8158628940582275,0.0009435696410946548,-0.002630070317536592,0.003648012643679976,-0.4608577191829681,0.05179126188158989,0.2624211013317108,0.04097675159573555,0.6114476919174194,-2.932097673416138
0.440013558,0.5781924724578857,-0.02192734368145466,-0.8172544836997986,0.002232343889772892,-0.002202473348006606,0.004291417077183723,-0.4608524739742279,0.05169523879885674,0.2626901865005493,0.04098494350910187,0.6114446520805359,-2.932088375091553
0.445010692,0.5784518718719482,-0.02341915294528008,-0.8159499764442444,0.001616242458112538,-0.002209276193752885,0.003853892674669623,-0.4608507454395294,0.05166339874267578,0.2627794146537781,0.04098832607269287,0.6114417314529419,-2.932088375091553
0.450008571,0.5800445675849915,-0.02246190421283245,-0.8168343901634216,0.003611057298257947,-0.002288259332999587,0.004461414180696011,-0.460849404335022,0.0516389012336731,0.2628480792045593,0.04099475964903831,0.6114411950111389,-2.932087659835815
0.455007732,0.5796561241149902,-0.02437097020447254,-0.8176270723342896,0.002512009115889668,-0.003080580849200487,0.003592083463445306,-0.4608489871025085,0.05163078010082245,0.2628708481788635,0.04100007936358452,0.611430287361145,-2.93208909034729
0.460007936,0.5788230895996094,-0.02458412945270538,-0.8165508508682251,0.004381667822599411,-0.004307228606194258,0.004601574037224054,-0.4607830941677094,0.0515647828578949,0.2638972103595734,0.04102741926908493,0.6114116907119751,-2.932084321975708
0.465008885,0.5784966349601746,-0.02428405918180943,-0.8180559277534485,0.003555029397830367,-0.003863687161356211,0.003875345690175891,-0.4607612490653992,0.05154289677739143,0.2642375528812408,0.04103314131498337,0.6114041209220886,-2.93208646774292
0.470010877,0.5785194635391235,-0.02186442166566849,-0.8184294700622559,0.003046762431040406,-0.001460894243791699,0.003756013698875904,-0.4607444405555725,0.05152605846524239,0.2644993960857391,0.04103705286979675,0.611398458480835,-2.932090282440186
0.475007743,0.5782921314239502,-0.02149790525436401,-0.8174179792404175,0.003293212968856096,-0.0008905475260689855,0.003500135382637382,-0.460738867521286,0.05152047425508499,0.2645862400531769,0.04103845357894897,0.611401379108429,-2.932080984115601
0.480006158,0.5777489542961121,-0.02261345088481903,-0.8172628879547119,0.001526401261799037,-0.001329987542703748,0.004069115500897169,-0.4608880281448364,0.05162056162953377,0.2646101713180542,0.04103400558233261,0.6113991737365723,-2.932089567184448
0.485005051,0.5791760683059692,-0.0221901535987854,-0.8158477544784546,0.002190277678892016,-0.003274018410593271,0.003061210736632347,-0.4609754383563995,0.051679577678442,0.2646074891090393,0.04103017970919609,0.6113947033882141,-2.932091236114502
0.490005255,0.5798166394233704,-0.02246993035078049,-0.8153265714645386,0.001622393727302551,-0.001558596268296242,0.002298302482813597,-0.4610427021980286,0.05172498524188995,0.2646054029464722,0.04102744907140732,0.6113983392715454,-2.932090759277344
0.495006204,0.579035758972168,-0.02424453757703304,-0.8145316243171692,0.001290189567953348,-0.001937088556587696,0.003654921893030405,-0.4610649943351746,0.05174004286527634,0.2646047174930573,0.04102754220366478,0.6113895773887634,-2.932095766067505
0.500008166,0.5764568448066711,-0.02335687726736069,-0.814949631690979,-0.0009796313242986798,-0.0003181372303515673,0.00321448827162385,-0.4609973132610321,0.05186539515852928,0.2645758390426636,0.04100978001952171,0.6113960146903992,-2.932101249694824
0.505005300,0.5778428316116333,-0.02228242345154285,-0.8170174360275269,0.002568547148257494,-0.002316499594599009,0.002877029357478023,-0.4608893096446991,0.05202168598771095,0.2645377218723297,0.04100576415657997,0.611394464969635,-2.932105302810669
0.510003686,0.5780448913574219,-0.02159816399216652,-0.8175634145736694,0.003456230973824859,-0.002145937643945217,0.005137793254107237,-0.4608062207698822,0.0521419383585453,0.2645083963871002,0.04101689159870148,0.6113907098770142,-2.932087898254395
0.515002906,0.5784557461738586,-0.02095062099397182,-0.8189241290092468,0.003179091028869152,-0.0009005478350445628,0.005402301903814077,-0.460778683423996,0.05218181386590004,0.2644986808300018,0.04101955518126488,0.61138916015625,-2.932071208953857
0.520003080,0.5780028104782104,-0.01994121819734573,-0.8163815140724182,0.002905678702518344,-0.002311859279870987,0.003870018757879734,-0.4607574939727783,0.05221249535679817,0.2644912004470825,0.04102133959531784,0.6113869547843933,-2.932064533233643
0.525004268,0.5783532857894897,-0.01940302737057209,-0.8159476518630981,0.004726105369627476,-0.001748653245158494,0.00551100866869092,-0.4609494209289551,0.05211658030748367,0.2636001110076904,0.04102849960327148,0.6113880276679993,-2.93204665184021
0.530006528,0.5770488977432251,-0.02683134563267231,-0.8195351958274841,0.004116077441722155,-0.003588089719414711,0.007203439716249704,-0.4610970616340637,0.05204277858138084,0.2629144787788391,0.04105967283248901,0.6113729476928711,-2.93203592300415
0.535003662,0.5765421390533447,-0.02959184907376766,-0.8194354176521301,0.00324920192360878,-0.001006050384603441,0.007444048766046762,-0.4611460268497467,0.05201830714941025,0.2626871466636658,0.04109431058168411,0.6113700270652771,-2.932030200958252
0.540001512,0.5801637768745422,-0.0239581074565649,-0.8154154419898987,0.002580882282927632,0.0002150623768102378,0.005104991141706705,-0.4611836969852448,0.05199947580695152,0.26251220703125,0.04109718650579453,0.6113866567611694,-2.932029485702515
0.545000732,0.5797934532165527,-0.0196752306073904,-0.815504789352417,0.002654324984177947,0.000224788673222065,0.004035566002130508,-0.4611698091030121,0.05205584689974785,0.2630366086959839,0.04108590260148048,0.6113897562026978,-2.932015895843506
0.550000668,0.5792915225028992,-0.02064963057637215,-0.8162891268730164,0.0002754210727289319,-0.000258702551946044,0.004269524943083525,-0.4611324667930603,0.0521625317633152,0.2640290260314941,0.04107395187020302,0.611403226852417,-2.932002782821655
0.555001855,0.5760574340820313,-0.02473590150475502,-0.8186418414115906,0.003382562194019556,-0.001626519369892776,0.004831366706639528,-0.461120069026947,0.0521979033946991,0.2643580734729767,0.04108685627579689,0.611394464969635,-2.93200159072876
0.560009956,0.5765228271484375,-0.02461046911776066,-0.8171138763427734,0.002030634786933661,-0.001970854587852955,0.004298302810639143,-0.461110532283783,0.05222512409090996,0.2646112740039825,0.04109684750437737,0.6113846302032471,-2.931993722915649
0.565013528,0.5785136222839355,-0.02266758866608143,-0.8151708245277405,0.003173292148858309,-0.000463852018583566,0.003902911674231291,-0.4611073732376099,0.05223415046930313,0.2646952271461487,0.04109985008835793,0.6113945841789246,-2.931986808776855
0.570011914,0.5792975425720215,-0.02236535027623177,-0.8141083717346191,0.002420347882434726,-0.00445573590695858,0.002584249246865511,-0.4607020318508148,0.05236697942018509,0.264572411775589,0.04109815135598183,0.6113779544830322,-2.931992053985596
0.575011313,0.5778356194496155,-0.02331381104886532,-0.816731333732605,0.001268994528800249,-0.002668948378413916,0.003493307624012232,-0.4605676233768463,0.0524110235273838,0.2645317018032074,0.04109347239136696,0.6113717555999756,-2.93197774887085
0.580011547,0.5760314464569092,-0.0236299391835928,-0.8178698420524597,0.001319856033660471,-0.001929149497300386,0.004168088547885418,-0.460464209318161,0.05244491249322891,0.2645003795623779,0.04109453409910202,0.6113618016242981,-2.931972026824951
0.585012496,0.5787480473518372,-0.0214470662176609,-0.816142201423645,0.000913986237719655,-0.001032043597660959,0.004106475971639156,-0.4604299366474152,0.05245614796876907,0.2644899785518646,0.04108748212456703,0.6113634705543518,-2.931960582733154
0.590014458,0.5779411196708679,-0.02140662260353565,-0.817375123500824,0.003506057430058718,-0.003835815703496337,0.003654493018984795,-0.4606521129608154,0.05211323872208595,0.2644907832145691,0.04108697175979614,0.611349880695343,-2.931962251663208
0.595011592,0.5771016478538513,-0.02152818813920021,-0.8177671432495117,0.001501134363934398,-0.001954251434653997,0.003031838918104768,-0.460787296295166,0.05191254243254662,0.2644932568073273,0.04107605665922165,0.611345112323761,-2.93196702003479
0.600009739,0.5783517360687256,-0.02043383754789829,-0.8178086876869202,0.0008328937110491097,-0.001743248663842678,0.003427468240261078,-0.4608913064002991,0.05175812169909477,0.2644951641559601,0.04106971248984337,0.6113408207893372,-2.931952476501465
0.605010152,0.5791242718696594,-0.02165738120675087,-0.8168458938598633,0.00192502629943192,3.116752486675978e-05,0.003771944670006633,-0.4609257876873016,0.05170691758394241,0.2644957900047302,0.04106447100639343,0.6113419532775879,-2.931953430175781
0.610010862,0.5784062743186951,-0.02243287675082684,-0.8189029693603516,0.001566602848470211,-0.001175749348476529,0.004164270590990782,-0.4610372483730316,0.0516643188893795,0.2639650702476501,0.0410635806620121,0.6113394498825073,-2.931955575942993
0.615011811,0.5787930488586426,-0.02422843873500824,-0.8177734017372131,0.002528008539229631,-0.002024347893893719,0.003839759388938546,-0.4611598551273346,0.05164696648716927,0.2632534503936768,0.04106401652097702,0.6113337874412537,-2.931961059570313
0.620014071,0.5783455371856689,-0.02404350601136684,-0.8164339065551758,0.0007235388038679957,6.16959878243506e-05,0.003980842418968678,-0.4612541794776917,0.05163361877202988,0.2627058923244476,0.04106153920292854,0.6113384366035461,-2.931959629058838
0.625011206,0.5782600045204163,-0.02035827003419399,-0.8166182637214661,0.0001414009020663798,-0.0007037417963147163,0.005334679502993822,-0.4612854421138763,0.0516291931271553,0.2625243365764618,0.04106034338474274,0.6113386154174805,-2.931943655014038
0.630009353,0.5767733454704285,-0.01751327328383923,-0.8165848851203918,0.002569443546235561,-0.0007971697486937046,0.005744832567870617,-0.4613095223903656,0.05162578821182251,0.2623846530914307,0.0410633347928524,0.6113355755805969,-2.931915998458862
0.635008514,0.5745890736579895,-0.02050190418958664,-0.8182966709136963,0.004068782087415457,0.0003576829330995679,0.006183596793562174,-0.4609658718109131,0.05162881687283516,0.2635379433631897,0.04107492044568062,0.6113353371620178,-2.931901931762695
0.640008986,0.5754970908164978,-0.02657360397279263,-0.8163320422172546,0.004049004055559635,0.0003933449042961001,0.006378022488206625,-0.4607014358043671,0.051631148904562,0.2644253373146057,0.04110818728804588,0.6113365888595581,-2.931900262832642
0.645009935,0.5792723298072815,-0.02315764129161835,-0.8171951174736023,0.002747626742348075,0.002643052954226732,0.005348668433725834,-0.4606137573719025,0.05163192376494408,0.264719545841217,0.04111961275339127,0.6113622188568115,-2.931884765625
0.650012136,0.5776785016059875,-0.02104293368756771,-0.8159305453300476,0.002867482602596283,0.002167761558666825,0.006962947081774473,-0.4605463147163391,0.05163251608610153,0.264945924282074,0.04112765192985535,0.6113748550415039,-2.931864738464355
0.655009270,0.576617419719696,-0.02186182327568531,-0.8165765404701233,0.002637675730511546,0.001211961382068694,0.006272254046052694,-0.4604662656784058,0.05163136497139931,0.2649945318698883,0.04114024713635445,0.6113856434822083,-2.931840419769287
0.660007417,0.576465904712677,-0.02409303933382034,-0.8174945116043091,0.004485208541154861,0.002285002963617444,0.005971687845885754,-0.4603463709354401,0.05162912234663963,0.2650051116943359,0.04115946590900421,0.611398458480835,-2.93183422088623
0.665006876,0.5759843587875366,-0.0216816421598196,-0.816545844078064,0.005279082804918289,0.004127583466470242,0.005395645741373301,-0.4603066146373749,0.05162837728857994,0.2650086283683777,0.04117530956864357,0.6114223003387451,-2.931821823120117
0.670007050,0.5780391097068787,-0.02110026217997074,-0.8164952397346497,0.003747927723452449,0.002509872429072857,0.007226430345326662,-0.4602760076522827,0.05162780359387398,0.2650113105773926,0.04119212552905083,0.6114481091499329,-2.9317946434021
0.675008535,0.5777465105056763,-0.02144301868975163,-0.817706823348999,0.006765689700841904,0.003919200506061316,0.007205971516668797,-0.4602658748626709,0.05162761360406876,0.2650122046470642,0.04122358933091164,0.6114709377288818,-2.931769847869873
0.680010736,0.5779221057891846,-0.02529416233301163,-0.8173027634620667,0.004274202045053244,0.002318097045645118,0.003229520283639431,-0.460128515958786,0.05196482688188553,0.2651846706867218,0.04124381765723228,0.6114895939826965,-2.93177342414856
0.685008109,0.5799404978752136,-0.02608272433280945,-0.8175914287567139,0.002633304800838232,0.002159368945285678,0.002054501324892044,-0.4600829780101776,0.05207664147019386,0.2652418613433838,0.0412418395280838,0.6115089654922485,-2.931787967681885
0.690006256,0.5750895142555237,-0.02840008027851582,-0.8161594271659851,0.0009430674836039543,0.003383606439456344,0.003669158788397908,-0.4600479602813721,0.05216267332434654,0.2652858793735504,0.04124999046325684,0.6115297675132751,-2.931791067123413
0.695011854,0.5762487649917603,-0.02253582142293453,-0.8181549310684204,0.00147437653504312,0.003683891613036394,0.004223154857754707,-0.4600363075733185,0.05219120159745216,0.2653004825115204,0.04124715924263,0.611542820930481,-2.931782007217407
0.700012267,0.578065037727356,-0.01790627650916576,-0.8169306516647339,0.00138024624902755,0.003127320436760783,0.00527470838278532,-0.4604299664497375,0.0520164892077446,0.2652323842048645,0.04123366624116898,0.6115668416023254,-2.931757211685181
0.705013514,0.5791332721710205,-0.02188040874898434,-0.8179792761802673,0.002260481705889106,0.002928065368905663,0.005609389394521713,-0.4606601297855377,0.05190989375114441,0.2651901841163635,0.04124728962779045,0.6115877628326416,-2.931740045547485
0.710015774,0.5793535709381104,-0.02265094965696335,-0.8183842301368713,0.002362180966883898,0.004497649148106575,0.006218432448804379,-0.4608372151851654,0.05182787403464317,0.2651577293872833,0.04126406461000443,0.6116222739219666,-2.931726455688477
0.715013146,0.5774638056755066,-0.02008396945893764,-0.8162621855735779,0.000987551175057888,0.002692445181310177,0.005069317296147346,-0.4608959555625916,0.0518006794154644,0.2651469707489014,0.04125587269663811,0.6116389632225037,-2.931714773178101
0.720010996,0.5776311159133911,-0.01901702955365181,-0.8170811533927917,0.003025725018233061,0.004269675351679325,0.006151882000267506,-0.4609681069850922,0.05174675583839417,0.2646320760250092,0.04126354679465294,0.6116628646850586,-2.931686401367188
0.725009918,0.576912522315979,-0.02078765258193016,-0.8178712129592896,0.004087736364454031,0.003604118246585131,0.007261600345373154,-0.4610192477703094,0.05169560015201569,0.2639504671096802,0.04128812998533249,0.611683189868927,-2.931663990020752
0.730010390,0.5759086608886719,-0.01953432708978653,-0.816885769367218,0.004084222018718719,0.004197563044726849,0.008186946623027325,-0.4610585868358612,0.05165623500943184,0.2634260654449463,0.04130340367555618,0.6117057800292969,-2.931635856628418
0.735012114,0.5784873962402344,-0.01994074881076813,-0.815966010093689,0.005041069816797972,0.004178840667009354,0.008504734374582767,-0.461071640253067,0.05164318531751633,0.2632521688938141,0.04133470356464386,0.6117396354675293,-2.931597471237183
0.740014315,0.5791885256767273,-0.02190876193344593,-0.8164277672767639,0.004960797261446714,0.004402357619255781,0.008741571567952633,-0.4610816538333893,0.05163314193487167,0.2631183564662933,0.04137309640645981,0.6117708086967468,-2.93157172203064
0.745011687,0.5793786644935608,-0.02161552384495735,-0.8171715140342712,0.003306811675429344,0.006677489262074232,0.009585188701748848,-0.4608846604824066,0.05177988484501839,0.263202428817749,0.04139712080359459,0.6118057370185852,-2.931524515151978
0.750009596,0.5782263875007629,-0.02139042504131794,-0.8183761239051819,0.004271659068763256,0.005226143635809422,0.007716997992247343,-0.4607330560684204,0.05189279094338417,0.2632671296596527,0.04143192991614342,0.6118351221084595,-2.931490659713745
0.755008996,0.5792583227157593,-0.02213953621685505,-0.8183872699737549,0.005936919245868921,0.007170435972511768,0.009075210429728031,-0.4606827795505524,0.05193023011088371,0.2632885873317719,0.04146769642829895,0.611875593662262,-2.931456089019775
0.760009468,0.5805625319480896,-0.02157997898757458,-0.8177908658981323,0.005925608333200216,0.00486284215003252,0.01033664029091597,-0.4606441259384155,0.05195903405547142,0.2633050978183746,0.04150676727294922,0.6118998527526855,-2.931413888931274
0.765010715,0.5809577107429504,-0.0236064251512289,-0.8149470686912537,0.003812523791566491,0.005036380141973495,0.00925674382597208,-0.4606038630008698,0.05208277329802513,0.2632072269916534,0.04154578968882561,0.6119401454925537,-2.931369543075562
0.770012915,0.5810977816581726,-0.02395156398415565,-0.815143346786499,0.004265171941369772,0.005097559653222561,0.008832334540784359,-0.4605451226234436,0.05229344218969345,0.2630274593830109,0.04157760739326477,0.6119767427444458,-2.931337356567383
0.775010049,0.5809375047683716,-0.02447395399212837,-0.8162494897842407,0.003484060289338231,0.003692528698593378,0.008462740108370781,-0.4605256319046021,0.05236329883337021,0.2629678547382355,0.04160758852958679,0.6120017766952515,-2.931303024291992
0.780007958,0.5798196196556091,-0.02471932768821716,-0.8158276677131653,0.003242440987378359,0.002968725981190801,0.008796819485723972,-0.460510641336441,0.05241704732179642,0.2629219889640808,0.04163913801312447,0.6120253801345825,-2.931272029876709
0.785007119,0.5790091156959534,-0.02580981887876987,-0.8150985836982727,0.004252227488905191,0.002507604658603668,0.007738019805401564,-0.4605056643486023,0.05243486911058426,0.2629067897796631,0.04166477918624878,0.6120449900627136,-2.931255578994751
0.790007055,0.5780410766601563,-0.0240012276917696,-0.8173659443855286,0.003598034149035811,0.001925372751429677,0.007877514697611332,-0.4605031907558441,0.0523885115981102,0.2637270987033844,0.0416930727660656,0.6120532751083374,-2.931230783462524
0.795008004,0.5774442553520203,-0.02162001095712185,-0.8166289925575256,0.003369291312992573,0.001090266625396907,0.007606567814946175,-0.4605023562908173,0.05237314105033875,0.2639991044998169,0.04170926660299301,0.6120609045028687,-2.931196451187134
0.800010264,0.5788863897323608,-0.02234796248376369,-0.8178870677947998,0.00345599208958447,0.002572061493992805,0.008182291872799397,-0.4605017304420471,0.05236131325364113,0.2642083764076233,0.04172858595848083,0.6120834350585938,-2.931172847747803
0.805007339,0.5780971646308899,-0.023015221580863,-0.8183202147483826,0.004165949765592813,0.002461826195940375,0.006753134541213512,-0.4605015218257904,0.05235739052295685,0.2642777562141418,0.04175012186169624,0.61210036277771,-2.931149959564209
0.810005486,0.576872706413269,-0.0221656858921051,-0.8176251649856567,0.004687942564487457,0.001839996897615492,0.008860908448696136,-0.4609545171260834,0.05225522816181183,0.2636708319187164,0.04177982360124588,0.6121108531951904,-2.931114673614502
0.815004408,0.577533483505249,-0.02496103383600712,-0.8180391192436218,0.003942945972084999,0.00354252103716135,0.007883288897573948,-0.4612168371677399,0.05219681933522224,0.263306200504303,0.04181068018078804,0.6121308207511902,-2.931102752685547
0.820004880,0.5790252089500427,-0.02650041133165359,-0.8171079158782959,0.005162524990737438,0.001459120423533022,0.007627102080732584,-0.4614186584949493,0.0521518774330616,0.2630255818367004,0.04184207692742348,0.6121417284011841,-2.931084632873535
0.825005829,0.5797104239463806,-0.02758064121007919,-0.8161326050758362,0.00366092287003994,0.0003437080304138362,0.006901985034346581,-0.4614855945110321,0.05213697627186775,0.2629325389862061,0.04187234491109848,0.6121492981910706,-2.931073427200317
0.830013931,0.5805667638778687,-0.02644002065062523,-0.815952479839325,0.003836257616057992,0.0009779417887330055,0.006821934133768082,-0.4615088999271393,0.05215457081794739,0.2629362046718597,0.04190494492650032,0.6121641397476196,-2.931061506271362
0.835016966,0.5807229280471802,-0.0251681674271822,-0.8159863948822021,0.001901869778521359,0.001651888946071267,0.00745032075792551,-0.4614882171154022,0.05218970403075218,0.2630133032798767,0.04192279651761055,0.6121818423271179,-2.93103289604187
0.840015113,0.5793253183364868,-0.02475907281041145,-0.8166115283966064,0.001607906655408442,-0.0006104331696406007,0.005855620838701725,-0.4614723026752472,0.05221673846244812,0.2630726099014282,0.04193073883652687,0.6121816039085388,-2.931025266647339
0.845014036,0.5790248513221741,-0.02413999289274216,-0.8178832530975342,0.0022850651293993,0.001725166803225875,0.005249714944511652,-0.4614670276641846,0.05222570151090622,0.2630922794342041,0.04194144159555435,0.6121972799301147,-2.931023120880127
0.850014210,0.5793001651763916,-0.02215364016592503,-0.8167806267738342,0.001615122775547206,-0.0006807046593166888,0.004555048421025276,-0.4614629745483398,0.05223259702324867,0.2631074190139771,0.04194136708974838,0.6122044920921326,-2.931005477905273
0.855015159,0.580073356628418,-0.0289167296141386,-0.8176037073135376,0.001392431557178497,0.001621281029656529,0.004798260983079672,-0.4612090885639191,0.05218477547168732,0.2637336850166321,0.04195387288928032,0.6122162342071533,-2.931016206741333
0.860017180,0.5803464651107788,-0.02673561871051788,-0.8168532848358154,0.0001473321754019707,-0.0001635412918403745,0.002905587898567319,-0.4610137343406677,0.05214798077940941,0.2642155587673187,0.04194403067231178,0.6122300028800964,-2.931025981903076
0.865014255,0.5809857845306396,-0.02257512323558331,-0.8168684244155884,0.0005094254156574607,0.000951344845816493,0.003088137600570917,-0.4609489738941193,0.05213578045368195,0.2643753588199615,0.04192329943180084,0.6122395396232605,-2.931021213531494
0.870012164,0.5789579153060913,-0.02075300924479961,-0.8162153363227844,-0.000922803592402488,0.0009281114907935262,0.002016486832872033,-0.4608991146087646,0.05212638899683952,0.2644982933998108,0.04190021753311157,0.6122516393661499,-2.931017160415649
0.875011086,0.5792023539543152,-0.02091148868203163,-0.8163696527481079,-0.0001010294363368303,0.001407038886100054,0.003806620137766004,-0.4605937898159027,0.05205986648797989,0.2645341753959656,0.04189236089587212,0.6122646927833557,-2.931007385253906
0.880011022,0.5784679651260376,-0.02187534049153328,-0.8153716921806335,0.0001879475748864934,0.0003942886542063206,0.00191381445620209,-0.4600668549537659,0.05194456875324249,0.2645568251609802,0.04187152534723282,0.6122742295265198,-2.931018352508545
0.885012507,0.5803189277648926,-0.02431699261069298,-0.8163472414016724,0.0001303850440308452,0.0002761133946478367,0.00411142036318779,-0.4598921239376068,0.05190633609890938,0.2645643353462219,0.04186421632766724,0.6122875809669495,-2.931014060974121
0.890014708,0.5786976218223572,-0.02481979504227638,-0.8166755437850952,0.0008556292741559446,0.0006732736947014928,0.004167757928371429,-0.4597576856613159,0.05187692120671272,0.2645701169967651,0.04187208041548729,0.6122919321060181,-2.931011915206909
0.895012081,0.5791622996330261,-0.02387978695333004,-0.8159511685371399,-0.0003382524882908911,0.0007102368399500847,0.004377296660095453,-0.4597131311893463,0.05186716839671135,0.2645720243453979,0.04185964167118073,0.6123001575469971,-2.931005477905273
0.900009990,0.579258143901825,-0.02384230680763721,-0.8166261911392212,0.0009514369303360581,0.001056792214512825,0.003171804128214717,-0.4604249894618988,0.05221288651227951,0.2646433711051941,0.04185185953974724,0.6123100519180298,-2.931013345718384
0.905008912,0.5814700126647949,-0.02409956976771355,-0.8155656456947327,0.0009670417057350278,0.001371286110952497,0.003354300977662206,-0.4606610238552094,0.05232752114534378,0.2646670341491699,0.04185192659497261,0.6123222708702087,-2.931007862091064
0.910008848,0.5796416401863098,-0.02467365190386772,-0.8147221207618713,0.0005571759538725019,-0.001593405497260392,0.00341944326646626,-0.46084263920784,0.05241572484374046,0.2646852433681488,0.04184868559241295,0.6123188734054565,-2.93100643157959
0.915010571,0.5800412893295288,-0.02584803104400635,-0.8164125680923462,0.0008510986226610839,-0.001728157512843609,0.003633116139099002,-0.4609028398990631,0.05244496837258339,0.2646912634372711,0.04185028746724129,0.6123186349868774,-2.931009292602539
0.920013070,0.5811681747436523,-0.02468219771981239,-0.8156895637512207,0.001915680360980332,0.0002496412489563227,0.003922061529010534,-0.4608961045742035,0.05245873332023621,0.2638459801673889,0.04185336083173752,0.6123247146606445,-2.931018352508545
0.925010920,0.5799310803413391,-0.02208155207335949,-0.8166795372962952,0.002239156747236848,-0.001178381615318358,0.003483026288449764,-0.4608807265758514,0.05246113240718842,0.2633553445339203,0.04185084253549576,0.6123203635215759,-2.931011438369751
0.930009067,0.5788233280181885,-0.02169228345155716,-0.8148302435874939,0.002418345073238015,-0.002470213919878006,0.003950417973101139,-0.4608689248561859,0.05246298015117645,0.2629778683185577,0.04184671863913536,0.6123151779174805,-2.931004762649536
0.935007989,0.5778475403785706,-0.02272950857877731,-0.8166000843048096,0.003564638318493962,-0.001337837195023894,0.003345189150422812,-0.4608649909496307,0.0524635910987854,0.2628526985645294,0.04185313731431961,0.6123124361038208,-2.9309983253479
0.940008461,0.5784090161323547,-0.02238043397665024,-0.816749095916748,0.0008986827451735735,-0.001863010926172137,0.004190550185739994,-0.4608330726623535,0.05240798741579056,0.2630102038383484,0.0418434739112854,0.6123108863830566,-2.93099045753479
0.945009410,0.5787737965583801,-0.02148725092411041,-0.817088782787323,0.001688892254605889,-0.001101514557376504,0.004673808347433805,-0.4607933461666107,0.05233300477266312,0.2633183896541595,0.04184291511774063,0.6123085618019104,-2.93098258972168
0.950012147,0.5784757733345032,-0.02067453041672707,-0.815706193447113,0.00321531156077981,-0.002310659736394882,0.005710534751415253,-0.4607627987861633,0.05227531492710114,0.2635555267333984,0.04184961691498756,0.6123033761978149,-2.930966377258301
0.955010056,0.579357922077179,-0.022317910566926,-0.814452052116394,0.001329666469246149,-0.003213807241991162,0.005070311017334461,-0.4607526659965515,0.05225618556141853,0.2636341452598572,0.04185053706169128,0.6123006939888,-2.930954217910767
0.960008204,0.5794127583503723,-0.02237491123378277,-0.8154317140579224,0.004761199932545424,-0.001675632665865123,0.004341961350291967,-0.4607448577880859,0.05224146321415901,0.2636946439743042,0.04186956584453583,0.6123033761978149,-2.9309401512146
0.965013504,0.5780112743377686,-0.02321702428162098,-0.8161370158195496,0.003027658676728606,-0.002035727724432945,0.005977467633783817,-0.4612517356872559,0.05230262875556946,0.2643047869205475,0.0418759249150753,0.6122933030128479,-2.930929183959961
0.970014215,0.5803602933883667,-0.02420466020703316,-0.8159839510917664,0.002272688783705235,-0.001868520979769528,0.005373265594244003,-0.4616417288780212,0.05234969034790993,0.2647742331027985,0.04189220443367958,0.612293004989624,-2.930913925170898
0.975015163,0.5786756277084351,-0.02418140135705471,-0.8155415654182434,0.002478998154401779,-0.0007072081789374352,0.006768376566469669,-0.4617710411548615,0.05236529558897018,0.2649298906326294,0.04190601781010628,0.6122922897338867,-2.930899381637573
0.980017662,0.57977694272995,-0.02532375417649746,-0.8161394596099854,0.002409773878753185,-0.002243577037006617,0.003315783571451902,-0.461870551109314,0.05237729847431183,0.2650496363639832,0.04190957918763161,0.6122916340827942,-2.930905342102051
0.985015035,0.5795322060585022,-0.02565013989806175,-0.8153945803642273,0.001379729364998639,-0.002410178305581212,0.004629592411220074,-0.4616150856018066,0.05245689675211906,0.2644738852977753,0.0419183261692524,0.6122902631759644,-2.930898904800415
0.990013182,0.5800819396972656,-0.02413759008049965,-0.8155338764190674,0.001297415117733181,-0.002493223175406456,0.004342390224337578,-0.461126834154129,0.05259460210800171,0.2634085118770599,0.04190587624907494,0.6122877597808838,-2.930900573730469
0.995012105,0.5795692205429077,-0.02541377767920494,-0.8150869011878967,0.0008637725841253996,-0.0008569556521251798,0.003070271108299494,-0.4609649479389191,0.05264025926589966,0.2630552649497986,0.04190072789788246,0.6122891306877136,-2.930905818939209
1.000012040,0.5791386365890503,-0.02520815841853619,-0.8162410855293274,0.0004507564590312541,-0.0006133788265287876,0.002143241232261062,-0.4608404040336609,0.05267539247870445,0.2627834677696228,0.04189743474125862,0.6122961640357971,-2.930918216705322
1.005012989,0.579012930393219,-0.02574260160326958,-0.818033754825592,0.0001108044671127573,-0.001788196852430701,0.002640517428517342,-0.4607990980148315,0.05268704146146774,0.2626933455467224,0.04189016669988632,0.6122940182685852,-2.930921316146851
1.010015488,0.5789583325386047,-0.02443363517522812,-0.8176038861274719,-0.00115264393389225,-0.001133267069235444,0.002403898630291224,-0.4611032903194427,0.05263486132025719,0.2626312077045441,0.04187525808811188,0.6122900247573853,-2.93093466758728
1.015012860,0.5790705680847168,-0.02491117268800735,-0.8161858916282654,-0.0002081384300254285,-0.002763646421954036,0.001058154739439487,-0.4612041711807251,0.05261755734682083,0.2626106142997742,0.04185454174876213,0.6122838258743286,-2.930949687957764
1.020010710,0.5787773728370667,-0.02165573835372925,-0.8146502375602722,-0.0006807465106248856,-0.002723905956372619,0.0006749681779183447,-0.4612817764282227,0.05260424315929413,0.2625947892665863,0.04183464869856834,0.61228346824646,-2.930958986282349
1.025009632,0.5760504603385925,-0.02239514887332916,-0.8145309686660767,-9.059469448402524e-05,-0.001904642092995346,0.0005577777046710253,-0.4613074958324432,0.05259982869029045,0.2625895440578461,0.04181491583585739,0.6122806072235107,-2.930970907211304
1.030009627,0.5784491896629333,-0.02137528359889984,-0.8152263164520264,-0.0006546807708218694,-0.0008574032108299434,0.0009945482015609741,-0.4612756669521332,0.05249523371458054,0.2627643644809723,0.04178711399435997,0.6122816801071167,-2.93098521232605
1.035011292,0.5794480443000793,-0.02345753088593483,-0.8163649439811707,-6.88583095325157e-05,0.0004459323245100677,0.0004150961467530578,-0.4612523317337036,0.05243551358580589,0.2628666162490845,0.04176720976829529,0.6122954487800598,-2.931008100509644
1.040013313,0.578852117061615,-0.02134804613888264,-0.8147488236427307,-0.001991479424759746,0.001366489799693227,0.0001605558209121227,-0.4612343907356262,0.05238956212997437,0.2629452645778656,0.04172751680016518,0.612308144569397,-2.931027173995972
1.045010686,0.5776163339614868,-0.01947459392249584,-0.8153822422027588,-0.000331082526827231,0.0003050394589081407,0.002113711321726441,-0.4612284302711487,0.05237432569265366,0.2629713416099548,0.04170761257410049,0.6123138666152954,-2.931020736694336
1.050008535,0.5782102346420288,-0.02139236591756344,-0.8155813813209534,-0.002212119288742542,0.0006695228512398899,0.00198892829939723,-0.4611662626266479,0.05230643600225449,0.263295441865921,0.04168058559298515,0.6123278141021729,-2.931027889251709
1.055007458,0.5794169902801514,-0.02147239074110985,-0.8154559135437012,-0.0006618282641284168,0.0002037313533946872,0.002488887868821621,-0.4610876142978668,0.05222728475928307,0.2637094557285309,0.04166337475180626,0.6123386025428772,-2.931020975112915
1.060007453,0.5785948634147644,-0.02054694108664989,-0.8167030811309814,0.0007151234894990921,-0.0008085379377007484,0.003887770464643836,-0.4610271155834198,0.05216638371348381,0.264028012752533,0.04165369272232056,0.6123448014259338,-2.931015014648438
1.065008402,0.5782971978187561,-0.01999019645154476,-0.8179000020027161,0.0009493355173617601,0.0001289417268708348,0.004024076741188765,-0.4610070586204529,0.05214618891477585,0.2641336619853973,0.04164249449968338,0.6123526692390442,-2.930998563766479
1.070010424,0.5789180994033813,-0.01989611238241196,-0.8175544738769531,0.002323814202100039,0.001761618535965681,0.005448897834867239,-0.4609915912151337,0.05213065445423126,0.264214962720871,0.04165062680840492,0.6123664379119873,-2.930970668792725
1.075007796,0.5794886350631714,-0.01983049698174,-0.8176002502441406,0.002916389144957066,0.002582492306828499,0.007386075798422098,-0.4614413976669312,0.05212942883372307,0.2637144923210144,0.04165808856487274,0.6123946905136108,-2.930941104888916
1.080005884,0.5796259641647339,-0.02152501419186592,-0.8171144127845764,0.001309644663706422,0.002753187669441104,0.005268445238471031,-0.4617875218391418,0.05212848633527756,0.263329416513443,0.04165614768862724,0.6124109029769897,-2.930925130844116
1.085005045,0.5784638524055481,-0.02089749835431576,-0.8165245652198792,0.002028146293014288,0.004542107228189707,0.006779439747333527,-0.4619022905826569,0.05212817341089249,0.2632017433643341,0.04166166856884956,0.6124366521835327,-2.930903434753418
1.090005040,0.5792633891105652,-0.02202032878994942,-0.8137691617012024,0.003325141966342926,0.002395450603216887,0.006584946066141129,-0.4619905650615692,0.05212793499231339,0.2631034851074219,0.04168393835425377,0.6124590039253235,-2.930881261825562
1.095006227,0.5783102512359619,-0.02401476912200451,-0.8153557777404785,0.003110421588644385,0.003925998229533434,0.006769460625946522,-0.4617901146411896,0.05209796130657196,0.2634474039077759,0.04169489070773125,0.6124851107597351,-2.93086576461792
1.100014567,0.5806199908256531,-0.02466258592903614,-0.8157955408096313,0.002595545258373022,0.004797130823135376,0.005273567978292704,-0.4614035487174988,0.05204466730356216,0.264092743396759,0.04170843213796616,0.6125203967094421,-2.930855989456177
1.105018139,0.5806563496589661,-0.02415291965007782,-0.8144574761390686,0.0001863233046606183,0.003415761981159449,0.004901434760540724,-0.4612753987312317,0.05202699452638626,0.2643067538738251,0.04170512780547142,0.6125425100326538,-2.930848836898804
1.110016823,0.581362783908844,-0.02091034501791,-0.8142687678337097,0.0008535247179679573,0.001752133248373866,0.005403864197432995,-0.4611767828464508,0.05201339721679688,0.2644714117050171,0.04169746488332748,0.61255943775177,-2.930827856063843
1.115015626,0.5796108841896057,-0.02303307317197323,-0.816760241985321,0.0009945358615368605,0.004429996944963932,0.004393649753183126,-0.4611440896987915,0.05200888961553574,0.2645260095596313,0.0416986458003521,0.6125898361206055,-2.930826663970947
1.120015621,0.5761494040489197,-0.02595720440149307,-0.8187660574913025,0.001850607804954052,0.004052496515214443,0.004928495734930038,-0.4610512256622314,0.05219681188464165,0.26343634724617,0.04170674830675125,0.6126009821891785,-2.930826187133789
1.125016332,0.5786923170089722,-0.02568234875798225,-0.8166256546974182,-0.0004010141710750759,0.003507801331579685,0.004655053839087486,-0.461020439863205,0.05225912109017372,0.2630750238895416,0.04170552268624306,0.6126263737678528,-2.930822134017944
1.130019069,0.5811536908149719,-0.02177421189844608,-0.8145979046821594,-0.0007317638956010342,0.00548623688519001,0.003857125760987401,-0.4609967470169067,0.05230706557631493,0.2627970278263092,0.04168357327580452,0.6126696467399597,-2.930812835693359
1.135016680,0.5776972770690918,-0.02388249337673187,-0.8157464265823364,-0.0009665472898632288,0.003549132728949189,0.004638155922293663,-0.4609888792037964,0.05232296139001846,0.2627048194408417,0.04167528823018074,0.6126919984817505,-2.930806159973145
1.140015364,0.5782835483551025,-0.02597993239760399,-0.8147344589233398,8.414965122938156e-06,0.005146380513906479,0.004265177994966507,-0.4610821306705475,0.05218438431620598,0.2626375257968903,0.04167957603931427,0.612721860408783,-2.930813074111938
1.145014286,0.5790243744850159,-0.02156108058989048,-0.813463568687439,-6.409594789147377e-05,0.004938666243106127,0.004002328496426344,-0.4611376523971558,0.05210111662745476,0.2626161277294159,0.04166296869516373,0.6127583980560303,-2.930798292160034
1.150014162,0.5792882442474365,-0.01925111748278141,-0.8120394349098206,0.001822326332330704,0.004045409616082907,0.003448609029874206,-0.4611803591251373,0.05203704908490181,0.2625996470451355,0.04165022447705269,0.6127844452857971,-2.930794239044189
1.155015707,0.5788694024085999,-0.02666666731238365,-0.8137973546981812,-0.0002713609719648957,0.003021428128704429,0.004228249657899141,-0.4611945152282715,0.05201580747961998,0.2625941932201385,0.04165901616215706,0.6128057241439819,-2.930803537368774
1.160018206,0.5816769003868103,-0.02763520739972591,-0.8130409121513367,-0.002686441410332918,0.002474959241226315,0.004007943440228701,-0.4612950086593628,0.05214966461062431,0.2630214095115662,0.04164529219269753,0.6128276586532593,-2.930802822113037
1.165015817,0.5819242000579834,-0.02517448551952839,-0.813912570476532,-0.001357310451567173,0.0005219511804170907,0.001265433616936207,-0.4614186882972717,0.05234551429748535,0.2635981142520905,0.04162022471427917,0.6128440499305725,-2.930823087692261
1.170013666,0.5798124670982361,-0.0286402590572834,-0.8142250180244446,-0.003482098923996091,0.001145677058957517,0.0003939467715099454,-0.4615138471126556,0.05249620974063873,0.2640418410301208,0.04159659147262573,0.6128559112548828,-2.930851936340332
1.175012827,0.5801005959510803,-0.02454642206430435,-0.8144905567169189,-0.004788392689079046,0.001415236387401819,-0.0003798152320086956,-0.4615454077720642,0.052546177059412,0.2641889750957489,0.04154957458376884,0.6128762364387512,-2.930865526199341
1.180012822,0.5793871283531189,-0.02106156200170517,-0.8144224286079407,-0.003485209075734019,0.000450115476269275,0.001466948655433953,-0.4615696966648102,0.05258462205529213,0.2643021643161774,0.04150509834289551,0.6128856539726257,-2.930867910385132
1.185013771,0.5797531604766846,-0.02064117044210434,-0.8151501417160034,-0.004798625130206347,0.003451008815318346,0.003039812669157982,-0.4613724648952484,0.05253680422902107,0.2637108266353607,0.04145590960979462,0.6129097938537598,-2.930872678756714
1.190015793,0.5755938291549683,-0.02274446934461594,-0.8179085850715637,-0.005105722695589066,0.007375660818070173,0.001711142715066671,-0.4612207114696503,0.05250001326203346,0.2632558047771454,0.04141630604863167,0.6129463315010071,-2.930880308151245
1.195012808,0.5767969489097595,-0.02259743213653564,-0.8165302276611328,-0.003991645760834217,0.004093712195754051,0.00421347888186574,-0.4611703753471375,0.052487812936306,0.2631049454212189,0.04138569161295891,0.6129685044288635,-2.930875301361084
1.200011015,0.5818307995796204,-0.01909816265106201,-0.8167984485626221,-0.004227157216519117,0.005162877961993217,0.002404683968052268,-0.4611316323280334,0.05247842893004417,0.2629888355731964,0.04133617877960205,0.6130058765411377,-2.930869817733765
1.205010176,0.5794584155082703,-0.01596401073038578,-0.8161754012107849,-0.003075263230130076,0.004410628229379654,0.003781928448006511,-0.4611484408378601,0.05247865617275238,0.2632554173469543,0.04130324348807335,0.6130359172821045,-2.93083667755127
1.210010171,0.5770261883735657,-0.02235995978116989,-0.8174645900726318,-0.00192108063492924,0.005561662837862968,0.007655149791389704,-0.4611913561820984,0.05248221009969711,0.2637689709663391,0.04129990190267563,0.6130614280700684,-2.930808544158936
1.215011597,0.5796988606452942,-0.02556642703711987,-0.8136975169181824,-0.003539483062922955,0.004302377346903086,0.005713742226362228,-0.4612056016921997,0.05248339101672173,0.2639392614364624,0.04128462821245193,0.6130876541137695,-2.930799961090088
1.220013857,0.5830060243606567,-0.02127893641591072,-0.814106822013855,-0.003279086202383041,0.001389354700222611,0.00530666671693325,-0.4612165689468384,0.05248429626226425,0.2640703022480011,0.04125656187534332,0.6131107211112976,-2.930781364440918
1.225011230,0.5812867283821106,-0.02266857028007507,-0.8152056932449341,-0.003331544809043407,0.002629132941365242,0.004522350151091814,-0.4612202048301697,0.05248459801077843,0.2641137540340424,0.04123783111572266,0.6131357550621033,-2.930768013000488
1.230009556,0.5809077620506287,-0.02994686551392078,-0.8133619427680969,-0.003468855749815702,0.001459990860894322,0.003071963787078857,-0.4608816504478455,0.05233483389019966,0.2632515430450439,0.04123509675264359,0.6131559014320374,-2.930780410766602
1.235014677,0.580982506275177,-0.03472178429365158,-0.8126528859138489,-0.006117525044828653,0.0007289242930710316,0.0022611771710217,-0.460769385099411,0.05228517577052116,0.2629656791687012,0.04121122136712074,0.6131659150123596,-2.930816173553467
1.240014791,0.581794798374176,-0.03270013630390167,-0.812571108341217,-0.007820789702236652,-0.0008015149505808949,0.001043723663315177,-0.4606830179691315,0.05224696546792984,0.2627457082271576,0.04117578640580177,0.613175094127655,-2.93085241317749
1.245015860,0.5821356177330017,-0.03506206721067429,-0.8118451833724976,-0.01128069590777159,-0.0004863814101554453,-0.003887793514877558,-0.4606543779373169,0.05223429575562477,0.2626727521419525,0.04110339283943176,0.6131893396377563,-2.930922269821167
1.250018001,0.5835611820220947,-0.03361974656581879,-0.8140192627906799,-0.01402781344950199,0.000221148831769824,-0.006591849960386753,-0.4608877003192902,0.05218669772148132,0.2635157406330109,0.04101051762700081,0.6132060289382935,-2.931003570556641
1.255015135,0.581964910030365,-0.0316641591489315,-0.8169819712638855,-0.01799468137323856,-0.0004799074959009886,-0.01019647903740406,-0.4610282480716705,0.05216154828667641,0.2640177309513092,0.04087302833795547,0.6132164597511292,-2.931107044219971
1.260013580,0.5807523727416992,-0.03141941502690315,-0.8157522678375244,-0.02242330834269524,0.000717074959538877,-0.01281165424734354,-0.4611364006996155,0.0521421991288662,0.2644039988517761,0.04071332141757011,0.613228440284729,-2.931225061416626
1.265012503,0.579418957233429,-0.03214681521058083,-0.815962553024292,-0.02559484541416168,0.001633764477446675,-0.01625226624310017,-0.4611722528934479,0.05213578417897224,0.264532059431076,0.04051075130701065,0.613247811794281,-2.931379318237305
1.270012379,0.5795451402664185,-0.03429508581757545,-0.8165568113327026,-0.02804805152118206,0.005027018487453461,-0.01895094662904739,-0.4613122642040253,0.05204121768474579,0.2640755474567413,0.04031167179346085,0.6132844686508179,-2.93153715133667
1.275013328,0.5808164477348328,-0.03191031888127327,-0.814537525177002,-0.03064942359924316,0.004605904221534729,-0.02035399153828621,-0.4614720642566681,0.05191947892308235,0.2633644342422485,0.04008118435740471,0.6133295893669128,-2.931711435317993
1.280015349,0.5820949077606201,-0.02965812385082245,-0.8149771690368652,-0.03529118746519089,0.004955415148288012,-0.02407541126012802,-0.4615950286388397,0.05182581022381783,0.2628172934055328,0.03981072083115578,0.6133714914321899,-2.931896924972534
1.285012245,0.5823785066604614,-0.02682759985327721,-0.8157832026481628,-0.03870318457484245,0.005758257117122412,-0.02741132117807865,-0.4616357982158661,0.05179474875330925,0.2626358866691589,0.03950789570808411,0.6134181618690491,-2.932094812393188
1.290010333,0.5798331499099731,-0.0276858601719141,-0.8152348399162292,-0.04141940549015999,0.006422970909625292,-0.02725700475275517,-0.4616671502590179,0.05177085474133492,0.262496292591095,0.03919500485062599,0.6134601235389709,-2.932299137115479
1.295009255,0.5806105136871338,-0.0226021483540535,-0.8165300488471985,-0.04531324282288551,0.009434682317078114,-0.02970076724886894,-0.4618269503116608,0.05161106586456299,0.2622312009334564,0.03884094208478928,0.6135212779045105,-2.932502031326294
1.300009251,0.5811218619346619,-0.01543332729488611,-0.8156043291091919,-0.04808933287858963,0.009598115459084511,-0.02859221026301384,-0.46194988489151,0.05148811638355255,0.2620272636413574,0.03845518082380295,0.6135845184326172,-2.932685136795044
1.305010438,0.5812317728996277,-0.0136030400171876,-0.8140174746513367,-0.04808901995420456,0.00878776703029871,-0.02584380842745304,-0.4619906544685364,0.05144734680652618,0.2619596123695374,0.03809209913015366,0.6136460304260254,-2.932843923568726
1.310016513,0.5778003931045532,-0.0147459302097559,-0.8148449063301086,-0.0450165756046772,0.008196661248803139,-0.02339751459658146,-0.4620220065116882,0.05141597986221313,0.2619075775146484,0.03775624558329582,0.6136923432350159,-2.932989358901978
1.315018773,0.5764510631561279,-0.01460348814725876,-0.8168212175369263,-0.04770040512084961,0.008623044937849045,-0.01966292597353458,-0.4618861675262451,0.05114717036485672,0.2623979151248932,0.03741976991295815,0.6137447953224182,-2.933113574981689
1.320019245,0.5794211626052856,-0.01254102867096663,-0.8170835971832275,-0.0451299361884594,0.01024821400642395,-0.01692588441073895,-0.4616338014602661,0.0506790429353714,0.2632884681224823,0.03710446879267693,0.6138072609901428,-2.933223724365234
1.325018167,0.5811737775802612,-0.00721953809261322,-0.8151599764823914,-0.04552572965621948,0.007747109979391098,-0.01450568903237581,-0.4615501165390015,0.05052382126450539,0.263583779335022,0.03678132966160774,0.6138557195663452,-2.933297157287598
1.330018282,0.5806423425674438,-0.002599473344162107,-0.8116697072982788,-0.04298839345574379,0.008606389164924622,-0.01176418084651232,-0.4614857137203217,0.0504043884575367,0.2638109624385834,0.03647259622812271,0.6139164566993713,-2.933341503143311
1.335019231,0.5800712704658508,-0.004782233387231827,-0.8126858472824097,-0.03883481025695801,0.009503083303570747,-0.009156272746622562,-0.4614643752574921,0.05036478489637375,0.2638863027095795,0.03620506823062897,0.6139728426933289,-2.933376550674438
1.340021253,0.5786250233650208,-0.009383091703057289,-0.8143168687820435,-0.03757384046912193,0.007347458973526955,-0.004800831899046898,-0.4615756571292877,0.05005539953708649,0.2627623677253723,0.03596604987978935,0.6140150427818298,-2.933406114578247
1.345018387,0.5768839120864868,-0.009592034853994846,-0.8161050081253052,-0.03328337520360947,0.008726216852664948,-0.0003175545716658235,-0.4616125524044037,0.04995281249284744,0.2623896896839142,0.03577287495136261,0.614054799079895,-2.933408975601196
1.350016475,0.5792471170425415,-0.004727688618004322,-0.8136636018753052,-0.02717624045908451,0.008037732914090157,0.003651071339845657,-0.4616409540176392,0.04987387731671333,0.2621029317378998,0.03559749573469162,0.614101767539978,-2.933368682861328
1.355015635,0.5803895592689514,-0.002166207181289792,-0.8111786842346191,-0.02486294694244862,0.005699401255697012,0.007340916898101568,-0.4616503715515137,0.04984770342707634,0.2620078325271606,0.03545689955353737,0.6141424179077148,-2.933303356170654
1.360015631,0.580840528011322,-0.008265312761068344,-0.8130289316177368,-0.02153434790670872,0.004475278779864311,0.01130502112209797,-0.4617100954055786,0.0497857928276062,0.2628298401832581,0.03534899279475212,0.6141736507415771,-2.933235645294189
1.365016580,0.5807409882545471,-0.009821563959121704,-0.817671537399292,-0.01790587231516838,0.004377701319754124,0.01216225698590279,-0.4617428481578827,0.04975492879748344,0.2633239328861237,0.03526725992560387,0.614197850227356,-2.933160781860352
1.370024681,0.5786808729171753,-0.00829058513045311,-0.8194940686225891,-0.01379476767033339,0.006509041879326105,0.01741025596857071,-0.4617680609226227,0.04973117634654045,0.2637040913105011,0.0352167934179306,0.614230751991272,-2.933055400848389
1.375028014,0.5791417956352234,-0.009913613088428974,-0.8193687796592712,-0.01033600140362978,0.0110850976780057,0.02066306956112385,-0.4617764055728912,0.0497233048081398,0.263830155134201,0.03521174937486649,0.6142874360084534,-2.932919979095459
1.380026102,0.581534743309021,-0.01283188536763191,-0.8166364431381226,-0.009773425757884979,0.01598423160612583,0.02127508074045181,-0.4616394937038422,0.04974407330155373,0.2640001773834229,0.03521130606532097,0.6143746972084045,-2.932799339294434
1.385025501,0.5789603590965271,-0.0168355330824852,-0.8175055980682373,-0.01085994206368923,0.02126926183700562,0.01923473365604877,-0.4614495038986206,0.04977801069617271,0.2641302049160004,0.03520692139863968,0.614483118057251,-2.932698011398315
1.390025496,0.5801870822906494,-0.02410643547773361,-0.8190459012985229,-0.01147459167987108,0.0246200580149889,0.01992561854422092,-0.461303323507309,0.04980412498116493,0.2642302513122559,0.03521368652582169,0.6146105527877808,-2.9326171875
1.395026684,0.5819381475448608,-0.02653787098824978,-0.8198703527450562,-0.01330196298658848,0.0296399611979723,0.01677908003330231,-0.4612548649311066,0.04981278255581856,0.2642634212970734,0.03521028533577919,0.6147646307945251,-2.932554960250854
1.400028944,0.5795667171478271,-0.022842762991786,-0.8217034935951233,-0.01627668365836143,0.03395850583910942,0.01452507544308901,-0.4612175524234772,0.04981944337487221,0.2642889618873596,0.03515807166695595,0.614934504032135,-2.932493448257446
1.405026078,0.5813981294631958,-0.01727885939180851,-0.8221083879470825,-0.01886517181992531,0.04055062308907509,0.01222547143697739,-0.4614101648330688,0.05002681910991669,0.2640309631824493,0.03508282080292702,0.6151441335678101,-2.932425737380981
1.410024405,0.5829179883003235,-0.01018885523080826,-0.8218107223510742,-0.02072380110621452,0.04441649839282036,0.01264691911637783,-0.4615583419799805,0.05018638446927071,0.2638324797153473,0.03498828783631325,0.6153693795204163,-2.932337522506714
1.415023565,0.5806614756584167,-0.0097697414457798,-0.8239469528198242,-0.02252628840506077,0.04955201596021652,0.01423336751759052,-0.4616074860095978,0.05023929104208946,0.2637666463851929,0.03489306941628456,0.6156124472618103,-2.932237386703491
1.420023561,0.5784664750099182,-0.008749905042350292,-0.8251176476478577,-0.01956649497151375,0.05402584373950958,0.01478659734129906,-0.4616453051567078,0.05028000101447105,0.2637159824371338,0.03481009975075722,0.615881085395813,-2.932146310806274
1.425024509,0.581182062625885,-0.009452304802834988,-0.8259690999984741,-0.02052533626556396,0.05799851939082146,0.01765321381390095,-0.4617433249950409,0.0502646304666996,0.2635235488414764,0.03474181145429611,0.6161643266677856,-2.932029485702515
1.430026531,0.5820071697235107,-0.005724489223212004,-0.8240865468978882,-0.01810991764068604,0.06151844188570976,0.01952989399433136,-0.4619051814079285,0.05022360756993294,0.2631978988647461,0.03468074649572372,0.6164722442626953,-2.931890964508057
1.435023665,0.5823031067848206,-0.008386619389057159,-0.8233607411384583,-0.02074740827083588,0.06815820932388306,0.02129029855132103,-0.4619588553905487,0.05021000653505325,0.2630898952484131,0.03462192416191101,0.6168195009231567,-2.931753158569336
1.440021992,0.5822451114654541,-0.008787680417299271,-0.8239296674728394,-0.01700748689472675,0.07527095079421997,0.0222107358276844,-0.4620001614093781,0.05019954591989517,0.2630068063735962,0.03458895161747932,0.6171950101852417,-2.931595802307129
1.445021749,0.5825930237770081,-0.0137971518561244,-0.8281772136688232,-0.01936136186122894,0.08488024026155472,0.02176202833652496,-0.4620138704776764,0.05019607394933701,0.26297926902771,0.03455422073602676,0.6176148056983948,-2.931461334228516
1.450021863,0.5768228769302368,-0.01222287770360708,-0.8308740854263306,-0.02317578345537186,0.09381823241710663,0.02194937691092491,-0.4624283015727997,0.05032896250486374,0.2621330916881561,0.03448864072561264,0.6180604100227356,-2.93133020401001
1.455022812,0.5779896378517151,-0.00257625337690115,-0.8343034386634827,-0.0191754475235939,0.1091177091002464,0.02337218448519707,-0.4625657498836517,0.05037302523851395,0.2618525326251984,0.03443979844450951,0.6185861229896545,-2.931155920028687
1.460025072,0.5775033235549927,0.005249549634754658,-0.8369943499565125,-0.01869868114590645,0.1243078038096428,0.02448873408138752,-0.4626714885234833,0.05040692910552025,0.2616366446018219,0.034373689442873,0.6191856265068054,-2.930949926376343
1.465022206,0.5723375678062439,0.002686937805265188,-0.8426384329795837,-0.01642377860844135,0.1467624455690384,0.02905232645571232,-0.4627065360546112,0.05041817203164101,0.2615650594234467,0.03435500711202621,0.6198861002922058,-2.930735349655151
1.470020294,0.5653100609779358,8.065058500505984e-05,-0.8576288223266602,-0.01894020289182663,0.1748349517583847,0.03293051943182945,-0.4628323614597321,0.05037173256278038,0.2608422636985779,0.03434194624423981,0.6206991076469421,-2.930506467819214
1.475019813,0.5425774455070496,0.001203650375828147,-0.8796954154968262,-0.03845204412937164,0.2363291084766388,0.04829904809594154,-0.4628985524177551,0.05034270510077477,0.2604373693466187,0.03429320082068443,0.6217363476753235,-2.930197477340698
1.480020523,0.527144730091095,0.02076936885714531,-0.8675483465194702,-0.04761935770511627,0.3312495946884155,0.07170160114765167,-0.4629494845867157,0.05032036826014519,0.2601258158683777,0.03423354774713516,0.6233059763908386,-2.92965841293335
1.485021472,0.5255562663078308,0.04860740527510643,-0.8764169216156006,-0.05215219035744667,0.4226461946964264,0.1011249721050262,-0.4629663825035095,0.05031296238303185,0.2600225210189819,0.03422637283802032,0.625329852104187,-2.928828716278076
1.490023375,0.5230902433395386,0.05592653900384903,-0.8959798812866211,-0.0476265661418438,0.5336641669273376,0.1333076059818268,-0.4632954597473145,0.05028354749083519,0.2598479688167572,0.03436018526554108,0.6278567314147949,-2.927798748016357
1.495020509,0.4648498892784119,0.0550708957016468,-0.9275913238525391,-0.06584487110376358,0.7179474234580994,0.1861638873815536,-0.4637233316898346,0.05024988204240799,0.2596941888332367,0.03464481979608536,0.6311651468276978,-2.926454544067383
1.500018477,0.4703532457351685,0.0375908799469471,-0.955930233001709,-0.0766466036438942,0.9460163712501526,0.2452558875083923,-0.4640525579452515,0.05022397637367249,0.2595758736133575,0.03517353162169456,0.6356874704360962,-2.924721717834473
1.505023956,0.486945241689682,0.0351581759750843,-0.9896270036697388,-0.1084391921758652,1.163853764533997,0.2841419577598572,-0.4641617238521576,0.05021538585424423,0.2595366239547729,0.03573009744286537,0.6413098573684692,-2.922680854797363
1.510024428,0.5119907259941101,-0.01306275185197592,-1.046644926071167,-0.1765277534723282,1.303834319114685,0.2902558445930481,-0.4642457067966461,0.05020877718925476,0.2595064342021942,0.03611669689416885,0.6475580930709839,-2.920714139938354
1.515025377,0.482412576675415,-0.05084516853094101,-1.136323213577271,-0.3514061570167542,1.43561851978302,0.2627676725387573,-0.4660429358482361,0.05056266486644745,0.2557286024093628,0.03552272915840149,0.6542244553565979,-2.919097661972046
1.520027399,0.4825855493545532,0.09534464031457901,-1.124151825904846,-0.3222047090530396,1.560926079750061,0.249363899230957,-0.4674257934093475,0.05083495751023293,0.2528218030929565,0.03452146425843239,0.6615694761276245,-2.917179584503174
1.525024533,0.5170485377311707,0.1949538737535477,-1.114296078681946,-0.1449846178293228,1.646690130233765,0.302254319190979,-0.4678843021392822,0.05092524364590645,0.2518579661846161,0.03477716073393822,0.669370174407959,-2.91458535194397
1.530022383,0.6478739380836487,0.165427953004837,-1.116098284721375,-0.04404754936695099,1.74236011505127,0.3347054719924927,-0.4682371020317078,0.05099471658468246,0.2511163651943207,0.03587570786476135,0.6778299808502197,-2.911731958389282
1.535022140,0.7132232189178467,0.04395462572574615,-1.126174449920654,-0.06603221595287323,1.755966305732727,0.3633211553096771,-0.4701956212520599,0.05143437534570694,0.2482878416776657,0.03725973144173622,0.6863850355148315,-2.908976078033447
1.540022492,0.7331168651580811,-0.04361795634031296,-1.15753698348999,-0.1608428359031677,1.767452716827393,0.3853824734687805,-0.473564624786377,0.05219392850995064,0.2435000687837601,0.03833699971437454,0.6948285698890686,-2.90627384185791
1.545023441,0.7793334722518921,-0.1039643809199333,-1.193175435066223,-0.2973297238349915,1.765931010246277,0.4415860176086426,-0.4746817350387573,0.05244578048586845,0.2419125437736511,0.03910530731081963,0.7032777070999146,-2.903255462646484
1.550025463,0.9522485136985779,-0.1631515175104141,-1.12853217124939,-0.4721020460128784,1.80516529083252,0.5127500891685486,-0.4755412638187408,0.05263956263661385,0.2406910508871078,0.03947601467370987,0.7122422456741333,-2.899646282196045
1.555022597,1.012846231460571,-0.1444900035858154,-1.086641669273376,-0.6847652196884155,1.852878451347351,0.5344805717468262,-0.4758262634277344,0.05270382016897202,0.2402860224246979,0.03885313123464584,0.7215059995651245,-2.895726203918457
1.560020685,1.086953163146973,0.0205715075135231,-1.032795071601868,-0.816394031047821,1.881207942962646,0.4993621706962585,-0.4810301065444946,0.05464999750256538,0.2297179996967316,0.03694897890090942,0.7311019897460938,-2.891654968261719
1.565019846,1.184157729148865,0.3636970221996307,-1.055776953697205,-0.761198878288269,1.809416055679321,0.4314741790294647,-0.4827556014060974,0.05529531463980675,0.2262138426303864,0.03415708616375923,0.7404249906539917,-2.887367725372314
1.570020080,1.367733836174011,0.6605213284492493,-1.10777735710144,-0.4086866676807404,1.592253446578979,0.3978175222873688,-0.4840832650661469,0.05579183995723724,0.2235176414251328,0.03241701424121857,0.7487333416938782,-2.882744550704956
1.575021029,1.446676969528198,0.7191109657287598,-1.205134034156799,0.1332323551177979,1.299340963363647,0.3725265562534332,-0.4845235049724579,0.05595647916197777,0.2226236164569855,0.03354204073548317,0.755420446395874,-2.878320455551147
1.580023050,1.368909597396851,0.5871241092681885,-1.287578582763672,0.6511965394020081,1.009302973747253,0.330515593290329,-0.4880970120429993,0.05654748156666756,0.2157821804285049,0.03756105899810791,0.7603517174720764,-2.874717235565186
1.585019946,1.147216081619263,0.394757479429245,-1.291389584541321,1.024995446205139,0.7881641983985901,0.2752951383590698,-0.4900823831558228,0.05685834586620331,0.2119909822940826,0.04357761889696121,0.7638761401176453,-2.872098445892334
1.590017796,0.8483126163482666,0.1797569990158081,-1.234468340873718,1.223441243171692,0.6635690331459045,0.2215036451816559,-0.4916099905967712,0.05709753558039665,0.2090739011764526,0.05069394409656525,0.7665316462516785,-2.870437145233154
1.595016718,0.5791078805923462,-0.01356228440999985,-1.167502403259277,1.252803802490234,0.6303143501281738,0.1763284951448441,-0.4921164810657501,0.05717684701085091,0.2081066519021988,0.05806798115372658,0.7688403129577637,-2.869518995285034
1.600016952,0.3790251910686493,-0.1366335600614548,-1.126052975654602,1.141794681549072,0.6691815257072449,0.1580922454595566,-0.4937565624713898,0.05868060141801834,0.204401433467865,0.06494623422622681,0.7712318897247314,-2.86893630027771
1.605017900,0.2545516788959503,-0.1752981096506119,-1.110227227210999,0.9616063833236694,0.7478458881378174,0.1714645326137543,-0.4955611824989319,0.0606340579688549,0.2001870274543762,0.07098295539617538,0.7739371061325073,-2.868249893188477
1.610019803,0.1975013911724091,-0.1518102288246155,-1.108420491218567,0.7889189720153809,0.8250640034675598,0.2172112762928009,-0.496949702501297,0.06213710829615593,0.1969443410634995,0.07631763070821762,0.7769731283187866,-2.867080211639404
1.615016937,0.185651496052742,-0.09460583329200745,-1.124189615249634,0.6615036725997925,0.8644061684608459,0.2887535691261292,-0.4974101185798645,0.06263548880815506,0.195869117975235,0.08126711845397949,0.7801486253738403,-2.865227937698364
1.620014906,0.1977862268686295,-0.04085452109575272,-1.151716947555542,0.6014465689659119,0.8423042297363281,0.3722857534885406,-0.4977644085884094,0.06301895529031754,0.1950418055057526,0.0862724706530571,0.7831172347068787,-2.862631797790527
1.625014305,0.1972855478525162,0.007992633618414402,-1.177703022956848,0.6003504395484924,0.7697263956069946,0.4571036994457245,-0.4986203610897064,0.0657796636223793,0.1916687488555908,0.09161205589771271,0.7856020927429199,-2.859364032745361
1.630015016,0.1732502281665802,0.03497687727212906,-1.193427085876465,0.6347432732582092,0.6643241047859192,0.5415228009223938,-0.4992789626121521,0.06790383905172348,0.1890733987092972,0.09750154614448547,0.7874098420143127,-2.855539321899414
1.635015965,0.1370501071214676,0.03331781178712845,-1.205216288566589,0.6789628863334656,0.5418751239776611,0.6136640906333923,-0.4994973540306091,0.06860817968845367,0.1882128268480301,0.1039678603410721,0.7884826064109802,-2.851317644119263
1.640024066,0.07942919433116913,0.01515346392989159,-1.203328609466553,0.7054066061973572,0.4141596555709839,0.667272686958313,-0.499665379524231,0.06915012001991272,0.1875506788492203,0.1108096390962601,0.7887880206108093,-2.846891403198242
1.645027041,0.01411924790591002,-0.01425167731940746,-1.199904084205627,0.7030888199806213,0.2969394326210022,0.7089787721633911,-0.4998795092105865,0.07084207236766815,0.1847795248031616,0.1178186237812042,0.788388729095459,-2.842360019683838
1.650025249,-0.03837566077709198,-0.03844674676656723,-1.200142741203308,0.6632406115531921,0.1889939457178116,0.7353494763374329,-0.5002044439315796,0.07367303967475891,0.1800672560930252,0.1247078999876976,0.7873599529266357,-2.837815523147583
1.655024648,-0.07588045299053192,-0.05185825750231743,-1.202706098556519,0.5941457748413086,0.08960779011249542,0.7487140893936157,-0.5003122091293335,0.07461173832416534,0.1785047650337219,0.1312093436717987,0.7857710123062134,-2.833345651626587
1.660024881,-0.08043406903743744,-0.05364856123924255,-1.205623507499695,0.5017749071121216,-0.01349541544914246,0.7495879530906677,-0.5003950595855713,0.07533399760723114,0.1773025244474411,0.1371162831783295,0.7836545705795288,-2.828994035720825
1.665026307,-0.06983766704797745,-0.04528643935918808,-1.197262167930603,0.4059368968009949,-0.1361533403396606,0.7354772090911865,-0.5004225373268127,0.07557348906993866,0.1769038885831833,0.1423054933547974,0.7809441089630127,-2.824851989746094
1.670028567,-0.0607045590877533,-0.01955061033368111,-1.186455607414246,0.3269250392913818,-0.2708780765533447,0.7126650214195251,-0.499571293592453,0.08113718032836914,0.1747972667217255,0.1467886120080948,0.777594268321991,-2.820950508117676
1.675025940,-0.06027296930551529,0.01128763891756535,-1.17516565322876,0.270792543888092,-0.4163873195648193,0.6808204650878906,-0.4992890059947968,0.08298199623823166,0.1740987449884415,0.1506039649248123,0.7735508680343628,-2.817421197891235
1.680023789,-0.06282000243663788,0.02935078926384449,-1.159462332725525,0.2332921326160431,-0.5639092326164246,0.6381394267082214,-0.4990718364715576,0.0844014585018158,0.1735612899065018,0.1538718342781067,0.7688162326812744,-2.814346551895142
1.685022950,-0.07840164005756378,0.03192100301384926,-1.142941117286682,0.2027630507946014,-0.705492377281189,0.5920348167419434,-0.4989998340606689,0.08487212657928467,0.1733830720186234,0.1566386073827744,0.7634122371673584,-2.811806201934814
1.690023184,-0.09404976665973663,0.02943351119756699,-1.124057412147522,0.1675668954849243,-0.8280488252639771,0.5359845161437988,-0.4967138767242432,0.08866310864686966,0.1742808520793915,0.1588508784770966,0.757457435131073,-2.80977201461792
1.695024610,-0.1090825349092484,0.01958786323666573,-1.1074458360672,0.1228289902210236,-0.9372044801712036,0.4756682813167572,-0.4954039752483368,0.09076859802007675,0.1748346239328384,0.160471647977829,0.751021146774292,-2.808315277099609
1.700026631,-0.1163388639688492,0.01329483836889267,-1.097916960716248,0.0685412734746933,-1.027575850486755,0.4090965390205383,-0.4943960905075073,0.09238862991333008,0.1752607226371765,0.1614095419645309,0.7442163228988647,-2.807456970214844
1.705024004,-0.1159329786896706,0.01488509494811296,-1.086499929428101,0.0100201228633523,-1.110561966896057,0.3415831029415131,-0.4940618872642517,0.09292580187320709,0.1754020154476166,0.1616799831390381,0.7370855808258057,-2.807136535644531
1.710021853,-0.1109687983989716,0.02226276136934757,-1.076305508613586,-0.03983616456389427,-1.18794846534729,0.2716700732707977,-0.4920156598091125,0.09471110254526138,0.177541196346283,0.1613016128540039,0.7296674847602844,-2.807310104370117
1.715021610,-0.1038206443190575,0.0328131876885891,-1.072048187255859,-0.0768272802233696,-1.260911583900452,0.2038579881191254,-0.4895330369472504,0.09668657928705215,0.1802980154752731,0.1603823602199554,0.7219721078872681,-2.80795431137085
1.720021725,-0.08995985239744186,0.04619725048542023,-1.06479024887085,-0.09907586872577667,-1.332059621810913,0.1363885402679443,-0.487622857093811,0.09820657968521118,0.1824191957712173,0.1590026170015335,0.7140162587165833,-2.80905818939209
1.725023031,-0.06908820569515228,0.05327991396188736,-1.060935139656067,-0.109605185687542,-1.398536086082458,0.07411331683397293,-0.4869894683361053,0.09871058166027069,0.1831225454807281,0.1572771519422531,0.7058285474777222,-2.81058406829834
1.730025172,-0.04700662568211555,0.05592833459377289,-1.055487275123596,-0.1105495616793633,-1.46205735206604,0.01719628274440765,-0.4865021109580994,0.09909837692975998,0.1836637258529663,0.1553230732679367,0.6974098682403564,-2.812463045120239
1.735022306,-0.03121521882712841,0.05920252576470375,-1.049543023109436,-0.1036839932203293,-1.519988298416138,-0.03062891215085983,-0.4821048676967621,0.09995291382074356,0.1886232644319534,0.1531999558210373,0.6887733340263367,-2.814624786376953
1.740020275,-0.02473204210400581,0.06383027881383896,-1.041301250457764,-0.09257446229457855,-1.568873882293701,-0.07359357178211212,-0.4787214994430542,0.1006104275584221,0.1924392879009247,0.1509691178798676,0.679956316947937,-2.817049503326416
1.745019078,-0.02126742340624332,0.0599108561873436,-1.032939195632935,-0.07852564007043839,-1.608697414398193,-0.1111098453402519,-0.4775996208190918,0.1008284464478493,0.1937046051025391,0.1487132459878922,0.6709948778152466,-2.819687366485596
1.750019550,-0.01644562557339668,0.05420614033937454,-1.026466369628906,-0.06192804500460625,-1.642094731330872,-0.1397669911384583,-0.4767364263534546,0.100996196269989,0.1946781873703003,0.1464746445417404,0.6619115471839905,-2.822482585906982
1.755021334,-0.01094705611467361,0.04410635679960251,-1.017138600349426,-0.05219990760087967,-1.666767358779907,-0.1582127809524536,-0.4736352562904358,0.1008281856775284,0.1986028999090195,0.1442815810441971,0.6527471542358398,-2.825358390808105
1.760023594,-0.01244738418608904,0.02756308205425739,-1.007966637611389,-0.04562373831868172,-1.682459592819214,-0.1651008725166321,-0.468402773141861,0.1004728004336357,0.2052647769451141,0.1421790271997452,0.6435343623161316,-2.828254699707031
1.765020728,-0.002938262885436416,0.009969716891646385,-1.007431507110596,-0.05477460846304893,-1.686997532844543,-0.1588529497385025,-0.4666677713394165,0.1003549546003342,0.2074737250804901,0.1401343196630478,0.6343026161193848,-2.831087350845337
1.770025015,0.02087955363094807,-0.01414464972913265,-1.01936411857605,-0.08330619335174561,-1.68487286567688,-0.1420443952083588,-0.4653328061103821,0.1002642884850502,0.2091733664274216,0.1381054371595383,0.6251047849655151,-2.833769083023071
1.775024414,0.06654312461614609,-0.03272093087434769,-1.03650426864624,-0.1381450295448303,-1.6855788230896,-0.1176708042621613,-0.4648901522159576,0.100234217941761,0.2097369283437729,0.1359563618898392,0.6159542202949524,-2.836244106292725
1.780025125,0.139428585767746,-0.0477575995028019,-1.055218577384949,-0.2195776849985123,-1.702071189880371,-0.08586316555738449,-0.4562738239765167,0.09938345104455948,0.2184507995843887,0.1335547417402267,0.606795608997345,-2.838450908660889
1.785026073,0.2330501973628998,-0.04626701027154922,-1.069038391113281,-0.3122202754020691,-1.745893478393555,-0.05605762451887131,-0.4534167945384979,0.09910135716199875,0.221340149641037,0.1307726353406906,0.5975117087364197,-2.840384006500244
1.790028334,0.3111884295940399,-0.02652513049542904,-1.076969623565674,-0.394016832113266,-1.814307808876038,-0.03106456622481346,-0.4512185454368591,0.09888429939746857,0.2235633134841919,0.1276228278875351,0.5879697799682617,-2.84207558631897
1.795025349,0.3688908219337463,0.001655508764088154,-1.084684610366821,-0.4576295018196106,-1.899500846862793,-0.01342756766825914,-0.4504896402359009,0.09881233423948288,0.2243004739284515,0.1241672858595848,0.578058123588562,-2.843586206436157
1.800023556,0.4138104617595673,0.03077841550111771,-1.088459491729736,-0.4964538812637329,-1.988993406295776,-0.01215044315904379,-0.4444140195846558,0.09815806895494461,0.232229620218277,0.1204911768436432,0.5677666664123535,-2.8450026512146
1.805022478,0.4482706189155579,0.0472547672688961,-1.077377438545227,-0.5244544744491577,-2.083085536956787,-0.0258465651422739,-0.4410347938537598,0.09779293090105057,0.2366805076599121,0.1166369020938873,0.5570829510688782,-2.846457958221436
1.810022354,0.4635148346424103,0.05307560786604881,-1.059502482414246,-0.5449150204658508,-2.172363519668579,-0.05705481395125389,-0.4384347200393677,0.09751198440790176,0.2401051670312881,0.1126042008399963,0.5460176467895508,-2.848096132278442
1.815023303,0.4606949090957642,0.05219997838139534,-1.035356044769287,-0.5654712915420532,-2.245568990707397,-0.1002952009439468,-0.437572568655014,0.09741882979869843,0.2412407249212265,0.1083931252360344,0.5346482992172241,-2.849960803985596
1.820025325,0.4433743953704834,0.04159131646156311,-1.003183364868164,-0.5937402248382568,-2.30073356628418,-0.1546744853258133,-0.4333111047744751,0.09659351408481598,0.2463161498308182,0.1039499193429947,0.5230505466461182,-2.852148771286011
1.825022459,0.4206735491752625,0.02202985435724258,-0.966241180896759,-0.6354050040245056,-2.331991910934448,-0.2129444479942322,-0.4282697737216949,0.09555990248918533,0.2522360384464264,0.09923847764730453,0.5113481879234314,-2.854652166366577
1.830020308,0.3895465433597565,0.0006982400082051754,-0.9259379506111145,-0.6883994340896606,-2.341425895690918,-0.2726579606533051,-0.4243907928466797,0.09476460516452789,0.2567909955978394,0.09421649575233459,0.4996334314346313,-2.857474565505981
1.835019231,0.3616076111793518,-0.02034199424088001,-0.8882428407669067,-0.750555694103241,-2.326865911483765,-0.3315509259700775,-0.4231046140193939,0.09450090676546097,0.258301317691803,0.08884564787149429,0.4880319833755493,-2.860578775405884
1.840019464,0.3374594748020172,-0.03581781685352325,-0.8511861562728882,-0.8124769926071167,-2.291929483413696,-0.3866041004657745,-0.4221149682998657,0.09429800510406494,0.2594634294509888,0.08313374221324921,0.4766331017017365,-2.863922357559204
1.845020652,0.3146710097789764,-0.04773591086268425,-0.8156793713569641,-0.8616368174552917,-2.24219012260437,-0.4304987192153931,-0.4135627150535583,0.09210021793842316,0.2668626606464386,0.0771792009472847,0.4655063152313232,-2.867420673370361
1.850022674,0.2995662093162537,-0.05393484607338905,-0.789142370223999,-0.8877660036087036,-2.174695014953613,-0.4633599817752838,-0.4069823324680328,0.09040916711091995,0.2725558578968048,0.07114344835281372,0.4547382891178131,-2.870980739593506
1.855019808,0.291637510061264,-0.06322921067476273,-0.7732330560684204,-0.8960503339767456,-2.092232227325439,-0.4892085492610931,-0.4048004150390625,0.08984844386577606,0.2744436264038086,0.06513072550296783,0.4443959891796112,-2.874560117721558
1.860017657,0.2929400503635406,-0.07625523209571838,-0.7651005983352661,-0.8840513229370117,-2.001065254211426,-0.5022127628326416,-0.4031215608119965,0.08941701054573059,0.2758961021900177,0.05928734317421913,0.4345211088657379,-2.878116846084595
1.865016580,0.3063051402568817,-0.08809422701597214,-0.7655332088470459,-0.8484660983085632,-1.906197190284729,-0.5059288740158081,-0.3978546857833862,0.08714417368173599,0.2810301780700684,0.0537286214530468,0.4251475632190704,-2.88160252571106
1.870016456,0.3338240683078766,-0.09631997346878052,-0.7796552777290344,-0.7948821783065796,-1.815186858177185,-0.4938973188400269,-0.3890393972396851,0.08324185013771057,0.2896848618984222,0.04857258871197701,0.4162653982639313,-2.884914398193359
1.875017762,0.3719235062599182,-0.09815773367881775,-0.8041238784790039,-0.7216902375221252,-1.730749011039734,-0.461683064699173,-0.3861164152622223,0.08194790780544281,0.2925545871257782,0.04393561184406281,0.4078288376331329,-2.887929916381836
1.880020022,0.4165140390396118,-0.1113991737365723,-0.8315629959106445,-0.6445583701133728,-1.653807163238525,-0.4185488820075989,-0.3838673830032349,0.08095231652259827,0.2947626411914825,0.0398809127509594,0.3998091816902161,-2.890634536743164
1.885017395,0.4686881005764008,-0.1182353273034096,-0.8630625009536743,-0.5744024515151978,-1.576533198356628,-0.3700937926769257,-0.3831216394901276,0.08062218874692917,0.2954947948455811,0.03633777797222137,0.3922386169433594,-2.893009185791016
1.890015244,0.544421374797821,-0.1308516412973404,-0.899808943271637,-0.5157699584960938,-1.514732122421265,-0.3164494037628174,-0.3730632960796356,0.07537274807691574,0.3024026453495026,0.03324190527200699,0.3850637078285217,-2.895039081573486
1.895014167,0.6336851119995117,-0.1627855747938156,-0.9395318031311035,-0.4690438807010651,-1.479294300079346,-0.2632631063461304,-0.369728147983551,0.0736321359872818,0.304693192243576,0.03057796508073807,0.3781752586364746,-2.896764278411865
1.900014043,0.7218599319458008,-0.1961128860712051,-0.9772610664367676,-0.4513683915138245,-1.482191205024719,-0.2122123539447784,-0.3671619892120361,0.07229284942150116,0.3064555823802948,0.02817961014807224,0.3713659644126892,-2.898222923278809
1.905021191,0.7954877018928528,-0.2273248285055161,-1.001859307289124,-0.4603951275348663,-1.51857328414917,-0.1715809851884842,-0.3663110733032227,0.07184876501560211,0.3070399463176727,0.02585861273109913,0.3644404709339142,-2.899483203887939
1.910023451,0.8564407229423523,-0.2476342767477036,-1.017636060714722,-0.4985402226448059,-1.580339074134827,-0.133857399225235,-0.3597568571567535,0.06915196776390076,0.3128978908061981,0.0234490167349577,0.3572759032249451,-2.900543689727783
1.915020585,0.9093003869056702,-0.2655275166034698,-1.028459787368774,-0.5594435334205627,-1.656662464141846,-0.1044854447245598,-0.3561237752437592,0.06767497956752777,0.316178560256958,0.02080708928406239,0.3497951030731201,-2.901452779769897
1.920018673,0.9606786370277405,-0.2816198766231537,-1.021302461624146,-0.6438822746276855,-1.742600321769714,-0.08477884531021118,-0.3533283472061157,0.06653853505849838,0.3187028169631958,0.01780563220381737,0.3419694304466248,-2.902250051498413
1.925017595,0.9934250116348267,-0.2915266454219818,-1.000577092170715,-0.7452166080474854,-1.83452832698822,-0.0735296905040741,-0.3524014353752136,0.06616171449422836,0.3195398151874542,0.01432517264038324,0.3337548971176147,-2.90296745300293
1.930018067,1.000933051109314,-0.2831475138664246,-0.9715444445610046,-0.8414301872253418,-1.922230839729309,-0.07284295558929443,-0.3481697142124176,0.06495945900678635,0.3226633667945862,0.0103533361107111,0.325132817029953,-2.903629064559937
1.935019016,0.9856128692626953,-0.2648866772651672,-0.9342750906944275,-0.9270378351211548,-1.989176034927368,-0.07862675935029984,-0.3432185053825378,0.06364083290100098,0.3261994123458862,0.005932360421866179,0.3161823153495789,-2.904239177703857
1.940021276,0.9628545045852661,-0.2419248968362808,-0.8950880765914917,-0.9949143528938293,-2.030664682388306,-0.08718954771757126,-0.3394088745117188,0.06262623518705368,0.3289201855659485,0.001150727272033691,0.3070330023765564,-2.9048011302948
1.945018411,0.929850697517395,-0.2189532220363617,-0.8520799279212952,-1.043368816375732,-2.043993473052979,-0.09382210671901703,-0.3381456732749939,0.06228981539607048,0.3298223316669464,-0.003882861230522394,0.29781374335289,-2.905311346054077
1.950016499,0.8912366032600403,-0.1980037242174149,-0.8125638961791992,-1.067890167236328,-2.037053823471069,-0.1004067733883858,-0.337173730134964,0.06203096359968185,0.3305164575576782,-0.009055237285792828,0.2886207103729248,-2.905768394470215
1.955015421,0.8455626964569092,-0.1743699163198471,-0.7752619385719299,-1.0705486536026,-2.009898900985718,-0.1111818104982376,-0.3290616571903229,0.05863342806696892,0.3357268571853638,-0.01425094343721867,0.2795378267765045,-2.906213760375977
1.960015655,0.8055432438850403,-0.1610722094774246,-0.7384830117225647,-1.052598476409912,-1.966506481170654,-0.1195234283804893,-0.3228199779987335,0.05601925775408745,0.3397358953952789,-0.0193499680608511,0.2706521153450012,-2.906630754470825
1.965017080,0.7688695788383484,-0.1560433357954025,-0.7076094746589661,-1.017512083053589,-1.908724665641785,-0.1252214759588242,-0.32075035572052,0.05515244975686073,0.3410652279853821,-0.02424819767475128,0.2620274722576141,-2.907046556472778
1.970019341,0.7295632362365723,-0.1575478315353394,-0.6824390292167664,-0.9750723242759705,-1.840699672698975,-0.1328635662794113,-0.3191579282283783,0.0544854998588562,0.3420880734920502,-0.02891399897634983,0.2537084817886353,-2.907487869262695
1.975016952,0.7014429569244385,-0.1601858884096146,-0.6599202156066895,-0.927949070930481,-1.759483814239502,-0.1380089223384857,-0.3138581812381744,0.05228609219193459,0.3447929620742798,-0.03332354873418808,0.2457836866378784,-2.907973527908325
1.980014801,0.6786871552467346,-0.1552121341228485,-0.6432628035545349,-0.8771496415138245,-1.672913312911987,-0.1398534327745438,-0.3049554228782654,0.04859347268939018,0.3492663502693176,-0.03747405856847763,0.2382862269878387,-2.90843653678894
1.985013962,0.6586463451385498,-0.1414740830659866,-0.6245168447494507,-0.8158468008041382,-1.578675150871277,-0.1342037916183472,-0.3020034432411194,0.04736907035112381,0.3507496416568756,-0.04133101552724838,0.2312394082546234,-2.908828735351563
1.990013957,0.6387345194816589,-0.1294134706258774,-0.6095028519630432,-0.7448709607124329,-1.482383012771606,-0.1165611892938614,-0.299732118844986,0.04642697423696518,0.3518909215927124,-0.04481455311179161,0.2246623337268829,-2.909078121185303
1.995014906,0.6330179572105408,-0.1262383311986923,-0.5997666120529175,-0.6723352074623108,-1.374220848083496,-0.08793614059686661,-0.2989789843559265,0.04611459374427795,0.3522693514823914,-0.04790118709206581,0.2186433225870132,-2.909175157546997
2.000017166,0.6363826990127563,-0.1345695704221725,-0.5899580121040344,-0.6069797873497009,-1.268415570259094,-0.05849235504865646,-0.2891951203346252,0.04175827279686928,0.3583067953586578,-0.05059986189007759,0.2131966054439545,-2.909163475036621
2.005014420,0.6379538178443909,-0.1518863290548325,-0.5827341675758362,-0.5532878041267395,-1.170575976371765,-0.02595300599932671,-0.2859509885311127,0.04031380265951157,0.3603087067604065,-0.05297546461224556,0.2082419395446777,-2.909045934677124
2.010012627,0.6367393136024475,-0.1670573353767395,-0.5741356015205383,-0.5044755339622498,-1.086776256561279,0.005539234727621078,-0.2834548354148865,0.03920237720012665,0.3618490099906921,-0.05505264177918434,0.2037263810634613,-2.90881872177124
2.015011549,0.6350693702697754,-0.1764009594917297,-0.5796892642974854,-0.4695875942707062,-1.004348516464233,0.04470352083444595,-0.2826271653175354,0.038833849132061,0.3623597621917725,-0.05690430849790573,0.1996216475963593,-2.908437252044678
2.020011425,0.6402631402015686,-0.1786164194345474,-0.5808398127555847,-0.4437691867351532,-0.9305689334869385,0.08392549306154251,-0.2764414846897125,0.03657635301351547,0.3645440638065338,-0.0585971511900425,0.1959088146686554,-2.907863616943359
2.025012732,0.6421650052070618,-0.1789737790822983,-0.5796911120414734,-0.4067894816398621,-0.8669003844261169,0.1306602358818054,-0.2730173468589783,0.03533935546875,0.3657115995883942,-0.0600760281085968,0.1925343573093414,-2.907059192657471
2.030015230,0.6428755521774292,-0.1659020334482193,-0.5774085521697998,-0.3601016700267792,-0.8108841776847839,0.1851783394813538,-0.2703827023506165,0.03438756242394447,0.3666099607944489,-0.0612851157784462,0.1894546896219254,-2.905939340591431
2.035013199,0.6381864547729492,-0.1552019417285919,-0.5768634676933289,-0.3010696172714233,-0.7569488286972046,0.2413841634988785,-0.2695091068744659,0.03407196700572968,0.3669078350067139,-0.06216740608215332,0.1866504698991776,-2.904518127441406
2.040017128,0.6385941505432129,-0.1480740904808044,-0.5726496577262878,-0.233098641037941,-0.7033900022506714,0.3004039525985718,-0.2665601372718811,0.0333932600915432,0.3685187697410583,-0.06265894323587418,0.1841394901275635,-2.902785778045654
2.045022488,0.6375392079353333,-0.1444390118122101,-0.563252329826355,-0.1600105911493301,-0.6543932557106018,0.3548531532287598,-0.2632863819599152,0.03272867575287819,0.3704462349414825,-0.06273908913135529,0.1818934977054596,-2.90078330039978
2.050022602,0.6357176303863525,-0.1393163502216339,-0.5564256310462952,-0.07866062968969345,-0.6100668907165527,0.4039766788482666,-0.2607674300670624,0.03221732005476952,0.3719293177127838,-0.06237704679369926,0.1798776090145111,-2.898530721664429
2.055023909,0.624808132648468,-0.1363002806901932,-0.5470250248908997,-0.01076360885053873,-0.5564084053039551,0.4478002190589905,-0.2599321901798248,0.03204776346683502,0.3724210560321808,-0.06164691597223282,0.1781293302774429,-2.896060943603516
2.060026169,0.6216052770614624,-0.1355372965335846,-0.5392524600028992,0.04240825027227402,-0.50215744972229,0.4736914038658142,-0.2592895328998566,0.03191730380058289,0.372799426317215,-0.06064847484230995,0.1766677349805832,-2.893498659133911
2.065023422,0.6225653886795044,-0.1312713474035263,-0.5290035009384155,0.08892244100570679,-0.4481605589389801,0.4825172424316406,-0.2557398080825806,0.03228067234158516,0.3742853701114655,-0.05943901091814041,0.1754773110151291,-2.890875101089478
2.070021868,0.6180772185325623,-0.125829353928566,-0.5206738710403442,0.1219796687364578,-0.3911114633083344,0.4751349091529846,-0.2530085444450378,0.03256026282906532,0.3754286766052246,-0.05809591710567474,0.1745554506778717,-2.88831090927124
2.075020790,0.6176528334617615,-0.1238380968570709,-0.5130594968795776,0.1409213989973068,-0.324421226978302,0.4491434097290039,-0.2521029114723206,0.03265297040343285,0.3758077919483185,-0.0567040704190731,0.1739703714847565,-2.885913133621216
2.080020666,0.6261428594589233,-0.1118275225162506,-0.4954153895378113,0.1494924873113632,-0.2508435845375061,0.4116409122943878,-0.2514060735702515,0.0327242985367775,0.3760994970798492,-0.05534102022647858,0.173767939209938,-2.883682250976563
2.085021496,0.6387415528297424,-0.08453761041164398,-0.4715166389942169,0.1525539457798004,-0.1703280955553055,0.3652530908584595,-0.2499247938394547,0.03393776342272758,0.3761330544948578,-0.05408169329166412,0.1739823967218399,-2.881587505340576
2.090023994,0.6627908945083618,-0.05053142458200455,-0.4495680332183838,0.1624780297279358,-0.08051946014165878,0.3165892958641052,-0.2475208938121796,0.03607453405857086,0.3760949969291687,-0.05287784710526466,0.1746836602687836,-2.879616975784302
2.095021248,0.6899124979972839,-0.01258632354438305,-0.4253489077091217,0.1808333843946457,0.007679447531700134,0.2686769068241119,-0.2467238008975983,0.03678304702043533,0.3760823905467987,-0.05170191824436188,0.1758643686771393,-2.877764225006104
2.100019693,0.721843421459198,0.02157480269670486,-0.4004446268081665,0.2121538072824478,0.103797122836113,0.2226810157299042,-0.2461104989051819,0.03732819855213165,0.3760726749897003,-0.05046260356903076,0.1775832325220108,-2.876032829284668
2.105018854,0.7529187202453613,0.03801248595118523,-0.3833536207675934,0.2531808018684387,0.1994171291589737,0.1768519580364227,-0.2459071427583694,0.03750896081328392,0.3760694563388824,-0.04907282069325447,0.1798204630613327,-2.874467372894287
2.110018730,0.797351598739624,0.03669454902410507,-0.3740916848182678,0.2930947542190552,0.2908729612827301,0.1337147504091263,-0.2441713064908981,0.04000086337327957,0.377731591463089,-0.04750116914510727,0.1825872361660004,-2.873092651367188
2.115020037,0.8570775985717773,0.02586080878973007,-0.3732999265193939,0.323706328868866,0.3634743392467499,0.1009656861424446,-0.2435957342386246,0.04082713276147842,0.3782827258110046,-0.04579414799809456,0.1857976615428925,-2.87187647819519
2.120022535,0.9144135713577271,0.009188054129481316,-0.3766887784004211,0.3405583798885345,0.4126544296741486,0.07889513671398163,-0.2431528717279434,0.04146288707852364,0.3787067830562592,-0.04400156810879707,0.1893308013677597,-2.870770692825317
2.125020266,0.9575136303901672,-0.009092764928936958,-0.3862654268741608,0.3500765264034271,0.4478063881397247,0.08041582256555557,-0.2430060356855392,0.041673693805933,0.3788473904132843,-0.04213501513004303,0.1930858194828033,-2.869684934616089
2.130018234,0.4700716137886047,0.1454432159662247,-0.4194868803024292,0.4560352861881256,0.694157600402832,0.2020052224397659,-0.2437772005796432,0.04352813586592674,0.3784173429012299,-0.04015378281474113,0.1967581212520599,-2.868140935897827
2.135017157,0.9534914493560791,-0.07154951989650726,-0.1344648003578186,0.6773072481155396,1.122849822044373,0.3685323596000671,-0.2442516982555389,0.04456178471446037,0.3781415820121765,-0.035954549908638,0.2045332342386246,-2.865747690200806
2.140016794,0.7375140786170959,0.04070093482732773,0.03740750253200531,0.7963095307350159,1.340298295021057,0.5444926023483276,-0.2446167767047882,0.0453571043908596,0.3779293894767761,-0.03130269423127174,0.2129188925027847,-2.862056493759155
2.145017862,0.02045707404613495,-0.002481674775481224,0.01461045071482658,0.8205410838127136,1.662401914596558,0.6736040115356445,-0.244737833738327,0.04562081769108772,0.3778590261936188,-0.02647406607866287,0.2211434096097946,-2.858786821365356
2.150020361,-0.2579633891582489,-0.1030849292874336,-0.4179821908473969,0.8596423268318176,2.116291522979736,0.8129426240921021,-0.24626325070858,0.04754814878106117,0.3768235445022583,-0.02097170427441597,0.2313166707754135,-2.855587482452393
2.155018330,-0.2803252041339874,-0.2418567091226578,-0.9979425668716431,0.713110089302063,2.523194074630737,0.823687732219696,-0.2482133358716965,0.04992611706256866,0.3754906058311462,-0.01594895496964455,0.2433997392654419,-2.852790832519531
2.160016298,-0.502108633518219,-0.1713061630725861,-1.529437780380249,0.5580586791038513,2.90436577796936,0.7661601901054382,-0.2497137933969498,0.05175580084323883,0.3744649887084961,-0.01201361697167158,0.2566595077514648,-2.850506067276001
2.165015459,-0.57089763879776,-0.02103197947144508,-1.765578269958496,0.454723447561264,3.293615102767944,0.6529653668403625,-0.2502113282680511,0.05236249044537544,0.3741249144077301,-0.009035930037498474,0.2716139853000641,-2.848361968994141
2.170015574,-0.1613893061876297,0.1205265671014786,-1.641633868217468,0.4407661259174347,3.589479446411133,0.4738524854183197,-0.2505941390991211,0.05282929539680481,0.3738632500171661,-0.006528500001877546,0.2889531850814819,-2.846139430999756
2.175022840,0.4416123628616333,0.1483025252819061,-1.30270528793335,0.437055766582489,3.80562162399292,0.303007572889328,-0.2588322162628174,0.05762076750397682,0.368251234292984,-0.004242543131113052,0.3085127472877502,-2.844070434570313
2.180025101,0.9406660199165344,0.1198070496320724,-1.004423141479492,0.4636392891407013,3.929420232772827,0.1818097531795502,-0.2651708424091339,0.06130747869610786,0.3639331459999084,-0.001884494791738689,0.3295243084430695,-2.842079639434814
2.185022354,1.253585338592529,-0.07776457071304321,-0.8686532378196716,0.4165341854095459,3.992674827575684,0.04245426878333092,-0.2672726213932037,0.06252992153167725,0.3625013828277588,0.0005535120144486427,0.3512240350246429,-2.841021299362183
2.190021038,1.385582447052002,-0.2519244253635406,-0.9180470108985901,0.2334866374731064,3.981511354446411,-0.1845112890005112,-0.2688897848129272,0.0634705126285553,0.3613997101783752,0.00180210021790117,0.3728911280632019,-2.841702461242676
2.195020199,1.477432012557983,-0.2903618514537811,-1.097725391387939,0.04218560084700584,3.8626868724823,-0.4067691564559937,-0.2770946323871613,0.06544717401266098,0.3562417030334473,0.001508424873463809,0.3938229084014893,-2.843728065490723
2.200020313,1.58762538433075,-0.2748599648475647,-1.291584849357605,-0.1100404933094978,3.597643852233887,-0.5225540995597839,-0.291161835193634,0.06865143775939941,0.3474268317222595,0.0001595344510860741,0.4133121073246002,-2.846278190612793
2.205021381,1.598593354225159,-0.230473667383194,-1.380749702453613,-0.2146162092685699,3.252340078353882,-0.5153905749320984,-0.295826256275177,0.06971391290426254,0.3445039987564087,-0.001853533089160919,0.4308747351169586,-2.848682403564453
2.210023403,1.429154276847839,-0.2148766666650772,-1.344319462776184,-0.231603130698204,2.899663209915161,-0.3866691887378693,-0.2994152307510376,0.07053141295909882,0.3422550559043884,-0.003569263499230146,0.4462375044822693,-2.850423812866211
2.215020180,1.188467383384705,-0.2329853624105453,-1.210849404335022,-0.2536041140556335,2.633702516555786,-0.2497149109840393,-0.3006052672863007,0.0708024799823761,0.3415093421936035,-0.004978325217962265,0.4599773585796356,-2.851657390594482
2.220018387,0.9947624802589417,-0.2560086846351624,-1.052531719207764,-0.2990199029445648,2.46568775177002,-0.1399635970592499,-0.318922758102417,0.06995229423046112,0.3291725814342499,-0.006301790475845337,0.4727669656276703,-2.852517604827881
2.225017548,0.8644232153892517,-0.2126650810241699,-0.948337733745575,-0.3819656372070313,2.365692138671875,-0.07061233371496201,-0.3249965012073517,0.06967039406299591,0.3250819444656372,-0.008041501976549625,0.4849989414215088,-2.852971315383911
2.230017900,0.8264435529708862,-0.05734669417142868,-0.9054684042930603,-0.4334066808223724,2.291944026947021,-0.02673759870231152,-0.3296698331832886,0.06945349276065826,0.3219344615936279,-0.01028948929160833,0.4969096481800079,-2.852760553359985
2.235018492,0.8158724308013916,0.1773030161857605,-0.9014036059379578,-0.4162630140781403,2.202434062957764,-0.007867153733968735,-0.3312194049358368,0.06938156485557556,0.3208908438682556,-0.01293601654469967,0.5083187818527222,-2.851897239685059
2.240020990,0.8058912754058838,0.3814292550086975,-0.9104975461959839,-0.2944619953632355,2.107501268386841,0.02748613618314266,-0.341196209192276,0.06795808672904968,0.3134819567203522,-0.01515703182667494,0.5192227363586426,-2.850390911102295
2.245018721,0.7718934416770935,0.5709453821182251,-0.8989192843437195,-0.1099296063184738,2.014930248260498,0.04056928679347038,-0.3466780781745911,0.06714753061532974,0.309390664100647,-0.01674686931073666,0.5295528173446655,-2.84846568107605
2.250017166,0.7711775898933411,0.7264968156814575,-0.8889459371566772,0.1623499393463135,1.934788823127747,0.07732594758272171,-0.3508959710597992,0.06652387231588364,0.3062427043914795,-0.01713550463318825,0.5395150780677795,-2.845987796783447
2.255016088,0.9477615356445313,0.9108171463012695,-0.9351741075515747,0.5446603298187256,1.812970995903015,0.2625182867050171,-0.3522945642471313,0.06631707400083542,0.3051988780498505,-0.01533420942723751,0.5491058230400085,-2.841922998428345
2.260016203,1.207303404808044,0.7733847498893738,-1.013380885124207,0.7786368727684021,1.546724677085876,0.4449082016944885,-0.3573350012302399,0.06622990220785141,0.3007671535015106,-0.01116227079182863,0.5577083230018616,-2.836508512496948
2.265017033,1.108794927597046,0.3524421453475952,-0.9205798506736755,0.8698480725288391,1.254685044288635,0.4712256491184235,-0.3630039095878601,0.06627354025840759,0.2956386208534241,-0.005644524004310369,0.5645188689231873,-2.832503318786621
2.270019531,0.9054975509643555,-0.0003695935010910034,-0.8385883569717407,0.8841526508331299,1.088088631629944,0.5498795509338379,-0.3673657476902008,0.06630712002515793,0.2916925549507141,0.0007014222210273147,0.5702117681503296,-2.829068422317505
2.275017023,0.7611455321311951,-0.2919253706932068,-0.8849387168884277,0.8150643706321716,0.9950506091117859,0.670625627040863,-0.3688120543956757,0.06631825864315033,0.2903841137886047,0.00779030891135335,0.5753127932548523,-2.825545787811279
2.280015469,0.755176305770874,-0.3441050350666046,-0.9451565742492676,0.7161471247673035,0.9015784859657288,0.7327322959899902,-0.3699249029159546,0.0663268193602562,0.2893773913383484,0.01448484417051077,0.5798781514167786,-2.821666955947876
2.285014868,0.7487275004386902,-0.196960523724556,-0.9467294216156006,0.6382948756217957,0.7978594303131104,0.7523915767669678,-0.3741887509822845,0.06993862241506577,0.2857716679573059,0.02043779380619526,0.5839029550552368,-2.817171096801758
2.290014744,0.7099553346633911,-0.01326915621757507,-0.8797683119773865,0.6285083889961243,0.716708779335022,0.7410700917243958,-0.3774695098400116,0.07271765172481537,0.2829973101615906,0.02595189772546291,0.5874838829040527,-2.812270641326904
2.295015574,0.6601215600967407,0.1197730451822281,-0.8301202058792114,0.6678820252418518,0.6604305505752563,0.7179067134857178,-0.3785573244094849,0.07363912463188171,0.2820773720741272,0.03138144686818123,0.5907893180847168,-2.807258129119873
2.300017595,0.6865623593330383,0.114608108997345,-0.8310149312019348,0.7135848999023438,0.6058712601661682,0.7195184230804443,-0.3793943524360657,0.07434813678264618,0.2813695669174194,0.03716250881552696,0.5938525795936584,-2.80226993560791
2.305014849,0.7766669988632202,-0.0436706617474556,-0.8980315327644348,0.7096009254455566,0.5313098430633545,0.7212826013565063,-0.3809692859649658,0.07705210149288177,0.2796349227428436,0.04334608837962151,0.5965697169303894,-2.797563314437866
2.310019016,0.8927898406982422,-0.261029988527298,-0.9615733623504639,0.6397161483764648,0.4045951366424561,0.7062532901763916,-0.3834929764270782,0.08162903040647507,0.2767835855484009,0.04953949525952339,0.5987246036529541,-2.793437480926514
2.315018415,0.7730399370193481,-0.2960436344146729,-0.9000507593154907,0.5396406054496765,0.2601110935211182,0.6932560801506042,-0.38432976603508,0.08314665406942368,0.2758381068706512,0.05512586236000061,0.5998825430870056,-2.789587497711182
2.320018768,0.6941049098968506,-0.2095573991537094,-0.8617116212844849,0.4731425046920776,0.2041906118392944,0.6611259579658508,-0.3849736452102661,0.08431436121463776,0.2751106321811676,0.05997748300433159,0.6008013486862183,-2.785733699798584
2.325019598,0.7197854518890381,-0.1119945645332336,-0.8731192946434021,0.4274621605873108,0.1308463960886002,0.6182625889778137,-0.3851871490478516,0.08470155298709869,0.274869441986084,0.06426989287137985,0.6013548374176025,-2.781798362731934
2.330021620,0.7040101885795593,-0.1031860709190369,-0.867278516292572,0.3931594789028168,0.08035513013601303,0.5717096328735352,-0.3869055211544037,0.09055682271718979,0.2724540531635284,0.06824605166912079,0.6016547679901123,-2.778229475021362
2.335018635,0.6725798845291138,-0.1443602293729782,-0.8597139120101929,0.3518577516078949,0.04494504630565643,0.5376642346382141,-0.3874752819538116,0.09249831736087799,0.2716531753540039,0.07198790460824966,0.6017588376998901,-2.775020599365234
2.340016603,0.6417242288589478,-0.1617992371320724,-0.8602919578552246,0.3074432015419006,0.03262833505868912,0.5007648468017578,-0.3879136741161346,0.09399216622114182,0.2710369229316711,0.07541768997907639,0.6017603874206543,-2.772124767303467
2.345015764,0.6284093856811523,-0.152574434876442,-0.862326979637146,0.2680957317352295,0.03063968755304813,0.4543111324310303,-0.3880590498447418,0.09448749572038651,0.2708325982093811,0.07844021171331406,0.6017751097679138,-2.769492626190186
2.350016117,0.6146527528762817,-0.1516232788562775,-0.8633115291595459,0.2303405851125717,0.04195009544491768,0.4077417552471161,-0.3879596292972565,0.09811177104711533,0.2694280445575714,0.08111268281936646,0.6018350720405579,-2.767076015472412
2.355017185,0.5935654640197754,-0.1527245491743088,-0.8773968815803528,0.195493295788765,0.05794895812869072,0.3563772439956665,-0.3878743946552277,0.1001160368323326,0.2686536610126495,0.08343447744846344,0.6019681692123413,-2.765031814575195
2.360019207,0.5813981890678406,-0.1511438339948654,-0.8737767934799194,0.1657807379961014,0.06511958688497543,0.3177781105041504,-0.38780876994133,0.1016581878066063,0.2680578231811523,0.08547011017799377,0.6021282076835632,-2.763222455978394
2.365016222,0.5855574011802673,-0.144141674041748,-0.8637254238128662,0.1430077999830246,0.0768648236989975,0.2775381505489349,-0.3877870440483093,0.1021695286035538,0.2678602337837219,0.08725471794605255,0.6023958921432495,-2.761594533920288
2.370014668,0.5871134400367737,-0.1299083977937698,-0.8581781983375549,0.1178160309791565,0.07960645854473114,0.2460770756006241,-0.3875254690647125,0.1035983189940453,0.2676155865192413,0.08877895772457123,0.6026737689971924,-2.760104894638062
2.375013590,0.5775558948516846,-0.1219375729560852,-0.8577860593795776,0.09055774658918381,0.06522133946418762,0.2288022488355637,-0.3871918618679047,0.105116106569767,0.2674410939216614,0.09008781611919403,0.6028872132301331,-2.758701801300049
2.380013466,0.5873146057128906,-0.1180037781596184,-0.8513617515563965,0.07139286398887634,0.06129506230354309,0.2011736184358597,-0.3869351744651794,0.1062839478254318,0.2673068344593048,0.09120024740695953,0.603089451789856,-2.757428646087646
2.385014534,0.5882530212402344,-0.1038176640868187,-0.8398716449737549,0.06812731921672821,0.05753570795059204,0.1769728809595108,-0.3868500590324402,0.1066711768507957,0.2672623097896576,0.09220124036073685,0.6033022403717041,-2.756286382675171
